currentMillis,ax,ay,az
0, 0.0, 0.0, 0.0
0, 0.0, 0.0, 0.0
0, 0.0, 0.0, 0.0
0, 0.0, 0.0, 0.0
0, 0.0, 0.0, 0.0
476, 0.0, 0.0, 0.0
486, -2.956824, -16.257744, 17.028673
496, 13.242262, -14.747608, -8.917757
506, -1.7639191, -17.889383, 6.902448
516, 6.008817, 1.3964111, 0.69072366
526, 13.888693, -1.876446, 10.414125
536, -10.265087, 3.1268115, -10.232167
546, 15.761548, 4.059947, 13.969497
556, 4.920059, 5.226516, 18.110846
566, -12.185826, 8.235414, 2.0123162
576, 0.26934633, 6.995223, 9.923317
586, 0.049679432, 4.013859, 7.6153183
596, 0.074219875, 4.2933803, 7.8092475
606, 0.07661406, 4.3101397, 7.797875
616, 0.07900825, 4.3286943, 7.7871013
626, 0.083796635, 4.3460526, 7.771539
636, 0.08499373, 4.362213, 7.7523856
646, 0.08798646, 4.379571, 7.7314363
656, 0.090380654, 4.3975277, 7.7086916
666, 0.09397194, 4.416681, 7.6889396
676, 0.09756322, 4.432842, 7.668589
686, 0.101154506, 4.448404, 7.6428514
696, 0.10414724, 4.4681563, 7.621902
706, 0.107738525, 4.481324, 7.594369
716, 0.11013272, 4.4938936, 7.56923
726, 0.11252691, 4.5112514, 7.542894
736, 0.117315285, 4.528011, 7.5165577
746, 0.12330076, 4.5453687, 7.4890246
756, 0.12689205, 4.5615296, 7.460893
766, 0.13048333, 4.5800843, 7.4339585
776, 0.13467316, 4.597442, 7.402834
786, 0.13886298, 4.613603, 7.3782935
796, 0.14185573, 4.629165, 7.3489647
806, 0.14544702, 4.646523, 7.3226285
816, 0.14963683, 4.661487, 7.2927012
826, 0.15262958, 4.677049, 7.263971
836, 0.15382667, 4.692611, 7.2358394
846, 0.15442522, 4.707575, 7.2089043
856, 0.15861505, 4.7213416, 7.1771817
866, 0.15861505, 4.7309184, 7.1484513
876, 0.16220634, 4.7488747, 7.1191225
886, 0.16699472, 4.765634, 7.0856037
896, 0.17238164, 4.7788024, 7.0580707
906, 0.17537437, 4.7925687, 7.0281434
916, 0.17776857, 4.8075323, 6.995223
926, 0.1819584, 4.821299, 6.961106
936, 0.19033806, 4.834467, 6.9287844
946, 0.19632354, 4.8476353, 6.896463
956, 0.19931628, 4.8596063, 6.86055
966, 0.20171046, 4.876964, 6.82763
979, 0.2059003, 4.8997087, 6.7659793
989, 0.20889303, 4.914074, 6.732461
999, 0.21308286, 4.926045, 6.698942
1009, 0.2172727, 4.943403, 6.667219
1019, 0.22026543, 4.9529796, 6.6337004
1029, 0.22385672, 4.963753, 6.6007805
1039, 0.2286451, 4.9745274, 6.568459
1049, 0.23223639, 4.987097, 6.532546
1059, 0.23403202, 4.999068, 6.500823
1069, 0.23403202, 5.009243, 6.4691
1079, 0.2376233, 5.018221, 6.433187
1089, 0.24061604, 5.030192, 6.3984714
1099, 0.24301024, 5.0391703, 6.3649526
1110, 0.24301024, 5.049944, 6.3338284
1120, 0.24660152, 5.060718, 6.2979155
1130, 0.25079134, 5.0714917, 6.2608056
1140, 0.25438264, 5.0810685, 6.2266884
1150, 0.26336083, 5.0888495, 6.1895785
1160, 0.26934633, 5.096631, 6.1548624
1170, 0.27233905, 5.108003, 6.1201468
1180, 0.2729376, 5.1193757, 6.085431
1190, 0.27473325, 5.12596, 6.0453286
1200, 0.27712744, 5.133142, 6.0082183
1210, 0.28012016, 5.1409235, 5.9699116
1220, 0.2807187, 5.147507, 5.9334
1230, 0.27892306, 5.153493, 5.8968887
1240, 0.28012016, 5.159478, 5.85918
1250, 0.2831129, 5.165464, 5.8232675
1260, 0.28490853, 5.1726465, 5.7855587
1270, 0.28790128, 5.1804276, 5.745456
1280, 0.29388675, 5.1870117, 5.712536
1290, 0.2980766, 5.1935954, 5.678419
1300, 0.30106932, 5.2001796, 5.6454988
1310, 0.30466062, 5.2043695, 5.6047974
1320, 0.30765334, 5.2097564, 5.5658917
1330, 0.31004754, 5.212749, 5.5257893
1340, 0.31423736, 5.2163405, 5.485088
1350, 0.31663156, 5.222326, 5.4491754
1360, 0.3172301, 5.227114, 5.4096713
1370, 0.3184272, 5.22891, 5.36897
1380, 0.32141992, 5.231304, 5.33186
1390, 0.32441267, 5.2354937, 5.29475
1400, 0.3286025, 5.238487, 5.258837
1410, 0.33039814, 5.2414794, 5.222924
1420, 0.3333909, 5.243275, 5.1822233
1430, 0.33817926, 5.2426763, 5.145113
1440, 0.33817926, 5.2414794, 5.1068063
1451, 0.34057346, 5.243275, 5.068499
1461, 0.341172, 5.2414794, 5.0277977
1471, 0.3399749, 5.2414794, 4.991885
1481, 0.34476328, 5.242078, 4.951184
1491, 0.34715748, 5.240282, 4.9104824
1501, 0.34775603, 5.242078, 4.872774
1511, 0.34596038, 5.240881, 4.82908
1521, 0.34955168, 5.240282, 4.787182
1531, 0.35434005, 5.238487, 4.7494736
1541, 0.35793132, 5.234297, 4.709969
1551, 0.36032552, 5.232501, 4.6698666
1561, 0.36690953, 5.231304, 4.6315594
1571, 0.36990228, 5.22891, 4.591457
1581, 0.37229645, 5.2235227, 4.5537486
1591, 0.3740921, 5.219333, 4.513047
1601, 0.3740921, 5.216939, 4.4783316
1611, 0.37349355, 5.2139463, 4.4400244
1622, 0.372895, 5.210953, 4.4041114
1632, 0.3716979, 5.207362, 4.3628116
1642, 0.37469065, 5.199581, 4.322709
1652, 0.3764863, 5.199581, 4.283205
1662, 0.37947902, 5.192997, 4.246095
1672, 0.37947902, 5.18761, 4.2071896
1682, 0.38307032, 5.1828218, 4.1700797
1692, 0.38366887, 5.1738434, 4.1299767
1702, 0.38546452, 5.166661, 4.095261
1712, 0.3878587, 5.160077, 4.059947
1722, 0.3878587, 5.15469, 4.0204425
1732, 0.3890558, 5.147507, 3.9833326
1742, 0.39085144, 5.1379304, 3.9450257
1752, 0.38845724, 5.1271567, 3.909113
1762, 0.38965434, 5.1205726, 3.8684115
1772, 0.39085144, 5.1115947, 3.8319004
1782, 0.39204854, 5.1014194, 3.7971845
1792, 0.39504126, 5.0912437, 3.7600746
1802, 0.3968369, 5.0792727, 3.722366
1812, 0.3968369, 5.0720906, 3.681665
1822, 0.40042818, 5.0601196, 3.6463506
1832, 0.39982966, 5.0547323, 3.6080434
1842, 0.3968369, 5.046353, 3.5715322
1852, 0.3968369, 5.034382, 3.5302324
1862, 0.398034, 5.021214, 3.494918
1872, 0.39743546, 5.009243, 3.4578083
1882, 0.39623836, 4.997272, 3.418304
1892, 0.3944427, 4.9858994, 3.3823912
1902, 0.39504126, 4.975126, 3.3488724
1912, 0.39504126, 4.963155, 3.3153539
1922, 0.39863256, 4.949388, 3.2818353
1932, 0.40102673, 4.9344244, 3.245324
1942, 0.40222383, 4.921855, 3.2088125
1954, 0.40581512, 4.8919277, 3.1441693
1965, 0.4082093, 4.8799567, 3.1082566
1975, 0.40880784, 4.8673873, 3.0675552
1985, 0.4094064, 4.853022, 3.0316424
1995, 0.4082093, 4.8362627, 2.9999194
2006, 0.40641367, 4.8201017, 2.9652038
2016, 0.40701222, 4.8075323, 2.9352763
2026, 0.40461802, 4.7901745, 2.9059474
2036, 0.40342093, 4.7746124, 2.872429
2046, 0.40162528, 4.75905, 2.8335233
2056, 0.40162528, 4.743488, 2.8041945
2066, 0.39982966, 4.7291226, 2.7700772
2076, 0.40162528, 4.714159, 2.7335658
2086, 0.40102673, 4.6979985, 2.7006457
2096, 0.40162528, 4.68064, 2.6707184
2106, 0.40042818, 4.661487, 2.640791
2116, 0.39863256, 4.641136, 2.614455
2126, 0.3968369, 4.624377, 2.5821333
2136, 0.3968369, 4.6088147, 2.5546002
2146, 0.39743546, 4.5932527, 2.5276656
2156, 0.39982966, 4.575895, 2.4971397
2166, 0.40162528, 4.559734, 2.466015
2176, 0.40162528, 4.5417776, 2.4366863
2186, 0.40102673, 4.52442, 2.4097517
2196, 0.40102673, 4.506463, 2.3846128
2206, 0.40162528, 4.4873095, 2.3546853
2216, 0.40102673, 4.469353, 2.3175755
2226, 0.39863256, 4.452594, 2.287648
2236, 0.3956398, 4.4346375, 2.2607133
2246, 0.3944427, 4.4172797, 2.2331803
2256, 0.3926471, 4.395732, 2.20445
2266, 0.39145, 4.3747826, 2.178114
2276, 0.38726014, 4.356228, 2.1493835
2286, 0.3866616, 4.3394685, 2.1188576
2296, 0.38845724, 4.3173223, 2.0937188
2306, 0.3890558, 4.29757, 2.0631928
2316, 0.38845724, 4.279015, 2.0344625
2326, 0.3866616, 4.2604604, 2.0057323
2336, 0.38606304, 4.241307, 1.9805932
2347, 0.3866616, 4.222153, 1.9524615
2357, 0.38366887, 4.2018027, 1.9315124
2367, 0.38247177, 4.181452, 1.908169
2377, 0.38426742, 4.1593056, 1.8842272
2387, 0.38247177, 4.140152, 1.8608837
2397, 0.38187322, 4.1204, 1.8333505
2407, 0.38067612, 4.1000495, 1.8088101
2417, 0.3776834, 4.080896, 1.7860653
2427, 0.37828195, 4.0605454, 1.7615249
2437, 0.37588775, 4.0401945, 1.736386
2447, 0.372895, 4.0210414, 1.7148383
2457, 0.37229645, 3.9976978, 1.6891006
2467, 0.37050083, 3.9743545, 1.667553
2477, 0.36810663, 3.9546025, 1.6448082
2487, 0.36930373, 3.9336534, 1.623859
2497, 0.36750808, 3.9115071, 1.6011142
2507, 0.3627197, 3.8881638, 1.5813621
2518, 0.36212116, 3.8702073, 1.5592159
2528, 0.36212116, 3.8516524, 1.5358726
2538, 0.35733277, 3.8313017, 1.5155219
2548, 0.35673425, 3.8103526, 1.4963684
2558, 0.3561357, 3.7894034, 1.471828
2568, 0.35733277, 3.771447, 1.4478861
2578, 0.3549386, 3.7534904, 1.4263384
2588, 0.3525444, 3.73314, 1.4011993
2598, 0.3513473, 3.7085996, 1.3856372
2608, 0.3513473, 3.6852562, 1.3640895
2618, 0.34955168, 3.665504, 1.3473301
2628, 0.34715748, 3.6451535, 1.3293737
2638, 0.34596038, 3.6242044, 1.3114173
2648, 0.34715748, 3.600861, 1.2928623
2658, 0.34476328, 3.5799117, 1.2755045
2668, 0.34177056, 3.5589626, 1.2515626
2678, 0.3423691, 3.537415, 1.2336061
2688, 0.34177056, 3.5182614, 1.2156497
2698, 0.34057346, 3.4967136, 1.2012845
2708, 0.3387778, 3.4781587, 1.180934
2718, 0.334588, 3.4572096, 1.162379
2728, 0.33279234, 3.4362605, 1.1462182
2738, 0.33578506, 3.4177055, 1.1300575
2748, 0.33698216, 3.3943622, 1.1126995
2758, 0.33279234, 3.372216, 1.0995315
2768, 0.3297996, 3.3500695, 1.0839692
2778, 0.32800394, 3.3315146, 1.0696042
2788, 0.32261702, 3.3141568, 1.0546404
2798, 0.31782866, 3.2932076, 1.0354869
2808, 0.31902575, 3.2716599, 1.0187277
2818, 0.31663156, 3.2507107, 1.0037639
2828, 0.31543446, 3.2321558, 0.9876031
2838, 0.316033, 3.2130022, 0.97084385
2848, 0.3136388, 3.1932502, 0.9564787
2861, 0.31423736, 3.148359, 0.92535424
2871, 0.3106461, 3.1298041, 0.9133833
2881, 0.3106461, 3.1112492, 0.8984196
2891, 0.31004754, 3.0897014, 0.88225883
2902, 0.30525917, 3.0699494, 0.86968935
2912, 0.30286497, 3.0513945, 0.85472566
2922, 0.29747805, 3.0328395, 0.8415576
2932, 0.2956824, 3.0094962, 0.8283896
2942, 0.29388675, 2.98735, 0.81701714
2952, 0.29388675, 2.968795, 0.80205345
2962, 0.29388675, 2.9520357, 0.78948396
2972, 0.2920911, 2.9298894, 0.7799072
2982, 0.2920911, 2.9095387, 0.76494354
2992, 0.29089403, 2.8915823, 0.75357115
3002, 0.28849983, 2.872429, 0.7445929
3012, 0.28730273, 2.8556695, 0.73381907
3022, 0.2831129, 2.8371146, 0.7236438
3032, 0.28131726, 2.8185596, 0.71167284
3042, 0.27772596, 2.799406, 0.70089895
3052, 0.27473325, 2.779654, 0.688928
3062, 0.27233905, 2.7616975, 0.68054837
3072, 0.2705434, 2.7419455, 0.669176
3082, 0.26934633, 2.7203977, 0.65481085
3092, 0.26755068, 2.7024415, 0.6446355
3102, 0.26695213, 2.6832879, 0.63625586
3112, 0.2627623, 2.6629372, 0.62787616
3122, 0.26455793, 2.6443822, 0.6177009
3132, 0.26455793, 2.6270244, 0.6087227
3142, 0.26336083, 2.6078708, 0.6027372
3152, 0.26336083, 2.5887175, 0.59435755
3162, 0.2627623, 2.5725565, 0.58717495
3172, 0.25976956, 2.5528045, 0.57460546
3182, 0.2579739, 2.5366437, 0.562036
3192, 0.25438264, 2.5180888, 0.5560505
3202, 0.25318554, 2.500731, 0.54407954
3212, 0.2513899, 2.4839716, 0.5380941
3222, 0.2501928, 2.469008, 0.52791876
3232, 0.2501928, 2.452847, 0.51774347
3243, 0.2489957, 2.4348907, 0.5105609
3253, 0.24600297, 2.4157372, 0.5027798
3263, 0.24241169, 2.3971822, 0.4944001
3273, 0.24001749, 2.38162, 0.48721755
3283, 0.24241169, 2.3654592, 0.47823936
3293, 0.24241169, 2.34451, 0.47165534
3303, 0.23941895, 2.3283494, 0.46447277
3313, 0.23822185, 2.3133855, 0.45788872
3323, 0.2364262, 2.2942321, 0.44711488
3333, 0.23463057, 2.2774727, 0.43634102
3343, 0.23283492, 2.2607133, 0.429757
3353, 0.23343347, 2.2421584, 0.42197588
3363, 0.23163784, 2.2248006, 0.41778606
3373, 0.22984219, 2.209837, 0.40880784
3383, 0.2286451, 2.192479, 0.40102673
3393, 0.22684945, 2.1799095, 0.3944427
3403, 0.22505382, 2.1643472, 0.3902529
3414, 0.22385672, 2.1493835, 0.38486597
3424, 0.22086398, 2.1350183, 0.38067612
3434, 0.22265962, 2.1212518, 0.37469065
3444, 0.22086398, 2.1044927, 0.36930373
3454, 0.21846978, 2.0901275, 0.36451533
3464, 0.21787125, 2.0739667, 0.35314295
3474, 0.21787125, 2.0596015, 0.35074875
3484, 0.21368141, 2.0434408, 0.34596038
3494, 0.20889303, 2.0278785, 0.34177056
3504, 0.20530175, 2.0135133, 0.33698216
3514, 0.20410465, 2.000944, 0.33398944
3524, 0.2047032, 1.983586, 0.32800394
3534, 0.20350611, 1.9686223, 0.3184272
3544, 0.20051336, 1.9500673, 0.316033
3554, 0.19752063, 1.9351037, 0.3070548
3564, 0.19871773, 1.9207385, 0.30346352
3574, 0.19632354, 1.9045777, 0.2956824
3584, 0.19692208, 1.8926067, 0.29268965
3594, 0.19632354, 1.8788402, 0.28610563
3604, 0.19153516, 1.8650736, 0.2795216
3614, 0.18734533, 1.8519056, 0.2765289
3624, 0.18794388, 1.8375404, 0.26994488
3634, 0.18794388, 1.8255695, 0.26814923
3644, 0.18914098, 1.8088101, 0.26395938
3654, 0.18554969, 1.7956421, 0.2567768
3664, 0.18255694, 1.781277, 0.25617826
3674, 0.17956421, 1.7693061, 0.25438264
3684, 0.17776857, 1.7555394, 0.2489957
3694, 0.17657147, 1.7447655, 0.24181314
3704, 0.17357874, 1.7292033, 0.2376233
3714, 0.17357874, 1.7154368, 0.23403202
3724, 0.17357874, 1.7040644, 0.22924364
3734, 0.17118455, 1.6902977, 0.22505382
3744, 0.1693889, 1.6759326, 0.22325817
3755, 0.1681918, 1.6645602, 0.21966688
3765, 0.16639617, 1.6507937, 0.2148785
3777, 0.16639617, 1.6280489, 0.20769593
3787, 0.16340344, 1.6184721, 0.20171046
3798, 0.16519907, 1.6070997, 0.19752063
3808, 0.16280489, 1.5915375, 0.19692208
3818, 0.16280489, 1.580165, 0.19931628
3828, 0.16519907, 1.5658, 0.19632354
3838, 0.16280489, 1.5526319, 0.19153516
3848, 0.15861505, 1.5388653, 0.19033806
3858, 0.15622087, 1.5268943, 0.18614823
3868, 0.15741795, 1.5149233, 0.18495114
3878, 0.15622087, 1.5047481, 0.18135986
3888, 0.15502377, 1.4933757, 0.17836712
3898, 0.15382667, 1.4820033, 0.17836712
3908, 0.14963683, 1.4706309, 0.17298019
3918, 0.14724265, 1.4580613, 0.16998746
3928, 0.14604555, 1.4460905, 0.16400197
3938, 0.14544702, 1.4353166, 0.16340344
3948, 0.14365137, 1.4245428, 0.15741795
3958, 0.14305282, 1.4137689, 0.15262958
3968, 0.14185573, 1.4000022, 0.15023538
3978, 0.14185573, 1.3874328, 0.14724265
3988, 0.14185573, 1.377856, 0.1466441
3998, 0.14185573, 1.3658851, 0.14424992
4008, 0.14125718, 1.358104, 0.14245427
4018, 0.13886298, 1.3485272, 0.13587025
4028, 0.1376659, 1.3377534, 0.13347606
4038, 0.13587025, 1.326381, 0.13347606
4048, 0.13467316, 1.3185998, 0.13347606
4058, 0.13108188, 1.307826, 0.13347606
4068, 0.12808913, 1.2952565, 0.13287751
4078, 0.12449785, 1.2844826, 0.13108188
4088, 0.12270221, 1.2755045, 0.13168041
4098, 0.12210366, 1.2653291, 0.12808913
4108, 0.1238993, 1.2569494, 0.1274906
4118, 0.12569495, 1.2485698, 0.1274906
4128, 0.12569495, 1.238993, 0.12808913
4139, 0.12210366, 1.2288177, 0.1250964
4149, 0.11851238, 1.2180439, 0.12330076
4159, 0.117315285, 1.2078686, 0.12210366
4169, 0.117913835, 1.1982918, 0.11312545
4179, 0.117913835, 1.1899122, 0.11073127
4189, 0.117315285, 1.1803354, 0.10654143
4199, 0.11551964, 1.1713572, 0.099358864
4209, 0.11611819, 1.1629776, 0.1035487
4219, 0.11312545, 1.1545979, 0.1023516
4229, 0.11132981, 1.1456196, 0.09756322
4239, 0.11013272, 1.1348459, 0.09756322
4249, 0.108935624, 1.1276633, 0.09756322
4259, 0.108337075, 1.1174879, 0.09576758
4269, 0.107738525, 1.1103053, 0.09397194
4279, 0.10654143, 1.1013272, 0.09457049
4289, 0.10594288, 1.0923489, 0.0909792
4299, 0.10414724, 1.0809766, 0.09516903
4310, 0.10295015, 1.0702027, 0.09397194
4320, 0.10534434, 1.0642172, 0.091577746
4330, 0.1035487, 1.0558375, 0.08798646
4340, 0.1023516, 1.048655, 0.083796635
4350, 0.101154506, 1.042071, 0.0796068
4360, 0.099358864, 1.0342898, 0.07900825
4370, 0.099358864, 1.024713, 0.08140244
4380, 0.099957414, 1.0145378, 0.08080389
4390, 0.101154506, 1.0073552, 0.08020534
4400, 0.098760314, 1.0001726, 0.08080389
4410, 0.09636613, 0.9905959, 0.082000986
4420, 0.09516903, 0.98341334, 0.08080389
4430, 0.09457049, 0.9744351, 0.07721261
4440, 0.09576758, 0.96246415, 0.074219875
4450, 0.09397194, 0.9540845, 0.07661406
4460, 0.092176296, 0.948099, 0.07721261
4470, 0.090380654, 0.941515, 0.07182568
4480, 0.089782104, 0.93552953, 0.06584021
4490, 0.08858501, 0.92774844, 0.06643876
4500, 0.08678937, 0.92176294, 0.06284747
4510, 0.08678937, 0.91278476, 0.065241665
4520, 0.08499373, 0.90440506, 0.06883295
4530, 0.08619082, 0.8960254, 0.06883295
4540, 0.08738792, 0.891237, 0.07122713
4550, 0.08738792, 0.8852516, 0.07003004
4560, 0.08439518, 0.87747043, 0.06703731
4570, 0.08499373, 0.8690908, 0.06344602
4580, 0.083198085, 0.8619082, 0.06703731
4590, 0.07900825, 0.8565213, 0.062248927
4600, 0.07900825, 0.8469445, 0.06165038
4610, 0.0796068, 0.8415576, 0.06105183
4620, 0.0796068, 0.8355721, 0.05925619
4630, 0.0784097, 0.8289881, 0.06643876
4640, 0.0796068, 0.8236012, 0.065241665
4651, 0.07781116, 0.81582004, 0.06165038
4661, 0.07601552, 0.80684185, 0.062248927
4673, 0.07481842, 0.7948709, 0.06584021
4683, 0.07661406, 0.78948396, 0.065241665
4694, 0.07661406, 0.7829, 0.06105183
4704, 0.07481842, 0.7787101, 0.05925619
4714, 0.07481842, 0.7739217, 0.058059096
4724, 0.07122713, 0.7679363, 0.058657642
4734, 0.07003004, 0.75895804, 0.058657642
4744, 0.064044565, 0.75357115, 0.05925619
4754, 0.064044565, 0.74997985, 0.05506636
4764, 0.065241665, 0.74519145, 0.053270716
4774, 0.06703731, 0.7380089, 0.05506636
4784, 0.06643876, 0.7320234, 0.058059096
4794, 0.064044565, 0.72304523, 0.055664904
4804, 0.064643115, 0.71586263, 0.055664904
4814, 0.064044565, 0.707483, 0.054467812
4824, 0.064643115, 0.7050888, 0.050876528
4834, 0.064044565, 0.70209605, 0.049080886
4844, 0.062248927, 0.6961106, 0.04788379
4854, 0.062248927, 0.6901251, 0.04788379
4864, 0.06344602, 0.68413967, 0.044292506
4874, 0.06165038, 0.6793513, 0.044292506
4884, 0.06165038, 0.6733658, 0.044891052
4894, 0.062248927, 0.66498613, 0.04309541
4904, 0.060453285, 0.6584021, 0.047285244
4914, 0.057460546, 0.6518181, 0.047285244
4924, 0.057460546, 0.6482268, 0.044292506
4934, 0.057460546, 0.6434384, 0.042496864
4944, 0.056862, 0.6392486, 0.04369396
4954, 0.056263454, 0.63386166, 0.04369396
4964, 0.055664904, 0.62787616, 0.04010267
4974, 0.051475074, 0.6224893, 0.041299768
4984, 0.051475074, 0.6159052, 0.042496864
4994, 0.05027798, 0.60932124, 0.042496864
5004, 0.05267217, 0.60333574, 0.0454896
5014, 0.053270716, 0.600343, 0.0454896
5024, 0.05267217, 0.59555465, 0.04309541
5035, 0.053270716, 0.59196335, 0.0454896
5045, 0.053869262, 0.5901677, 0.0454896
5055, 0.053270716, 0.5865764, 0.047285244
5065, 0.05207362, 0.58059096, 0.04788379
5075, 0.051475074, 0.5764011, 0.05027798
5085, 0.05027798, 0.56862, 0.04788379
5095, 0.049679432, 0.5644302, 0.044891052
5105, 0.0454896, 0.5596418, 0.041898318
5115, 0.04369396, 0.5560505, 0.04070122
5125, 0.04309541, 0.5530578, 0.037708484
5135, 0.0454896, 0.54767084, 0.03591284
5145, 0.0454896, 0.5446781, 0.037109938
5155, 0.044891052, 0.543481, 0.037708484
5165, 0.044891052, 0.53510135, 0.036511388
5175, 0.04369396, 0.52911586, 0.037708484
5185, 0.04010267, 0.52492607, 0.039504126
5195, 0.03830703, 0.5207362, 0.04010267
5206, 0.03890558, 0.51774347, 0.04070122
5216, 0.03890558, 0.5111595, 0.03890558
5226, 0.042496864, 0.5075682, 0.036511388
5236, 0.0454896, 0.5027798, 0.036511388
5246, 0.044292506, 0.4979914, 0.041299768
5256, 0.042496864, 0.4955972, 0.041898318
5266, 0.041299768, 0.49320304, 0.036511388
5276, 0.04010267, 0.4914074, 0.0341172
5286, 0.03830703, 0.4890132, 0.0341172
5296, 0.037109938, 0.48362628, 0.032321557
5306, 0.03591284, 0.47823936, 0.03830703
5316, 0.03591284, 0.4740495, 0.039504126
5326, 0.034715746, 0.4662684, 0.04010267
5336, 0.034715746, 0.45908582, 0.039504126
5346, 0.035314295, 0.45429745, 0.037708484
5356, 0.0341172, 0.45010763, 0.035314295
5366, 0.033518653, 0.45070615, 0.037708484
5376, 0.035314295, 0.44412214, 0.03830703
5386, 0.0341172, 0.44053087, 0.041299768
5396, 0.033518653, 0.43873522, 0.042496864
5406, 0.033518653, 0.43693957, 0.04309541
5416, 0.0341172, 0.43693957, 0.04369396
5426, 0.032920104, 0.4333483, 0.041299768
5436, 0.034715746, 0.42855993, 0.041299768
5446, 0.037109938, 0.42257443, 0.035314295
5456, 0.034715746, 0.4183846, 0.03830703
5466, 0.036511388, 0.41539186, 0.04070122
5476, 0.035314295, 0.4106035, 0.041299768
5486, 0.0341172, 0.40641367, 0.042496864
5496, 0.032920104, 0.40222383, 0.04369396
5506, 0.0341172, 0.39982966, 0.041299768
5516, 0.032920104, 0.39863256, 0.04010267
5526, 0.031124463, 0.39623836, 0.03830703
5536, 0.031124463, 0.3932456, 0.041898318
5547, 0.028730273, 0.3878587, 0.041898318
5557, 0.026934631, 0.38546452, 0.04010267
5567, 0.024540443, 0.38067612, 0.042496864
5580, 0.026336085, 0.37588775, 0.046088148
5590, 0.028131727, 0.3740921, 0.04309541
5600, 0.028131727, 0.36750808, 0.041898318
5610, 0.026934631, 0.3627197, 0.04010267
5620, 0.028730273, 0.35912842, 0.04010267
5630, 0.02753318, 0.3561357, 0.041898318
5640, 0.02513899, 0.3525444, 0.044292506
5650, 0.023343347, 0.3501502, 0.041898318
5660, 0.0227448, 0.34715748, 0.041898318
5670, 0.023343347, 0.34296763, 0.04309541
5680, 0.022146253, 0.34177056, 0.04070122
5690, 0.019752063, 0.3387778, 0.03890558
5700, 0.019752063, 0.334588, 0.036511388
5710, 0.018554969, 0.3297996, 0.033518653
5720, 0.018554969, 0.32920104, 0.032321557
5730, 0.019752063, 0.32560977, 0.032920104
5740, 0.019153515, 0.32201847, 0.035314295
5750, 0.016759327, 0.3196243, 0.037109938
5760, 0.014963685, 0.31782866, 0.03890558
5770, 0.016160779, 0.31423736, 0.04010267
5780, 0.016759327, 0.3136388, 0.04010267
5790, 0.015562232, 0.3106461, 0.041299768
5800, 0.019153515, 0.3082519, 0.041898318
5810, 0.02035061, 0.30466062, 0.036511388
5820, 0.018554969, 0.30466062, 0.036511388
5830, 0.019752063, 0.30106932, 0.036511388
5840, 0.020949159, 0.29747805, 0.035314295
5850, 0.016759327, 0.2944853, 0.041898318
5860, 0.016160779, 0.2920911, 0.04070122
5870, 0.017357873, 0.28969693, 0.04070122
5880, 0.016759327, 0.28371146, 0.0454896
5890, 0.015562232, 0.28251436, 0.042496864
5900, 0.015562232, 0.28012016, 0.04010267
5910, 0.015562232, 0.27593035, 0.041299768
5920, 0.016160779, 0.27473325, 0.046088148
5931, 0.016759327, 0.27473325, 0.041299768
5941, 0.014365137, 0.27473325, 0.039504126
5951, 0.0131680425, 0.2729376, 0.041299768
5961, 0.01376659, 0.26814923, 0.042496864
5971, 0.01376659, 0.26575503, 0.04010267
5981, 0.012569495, 0.2627623, 0.041898318
5991, 0.012569495, 0.26395938, 0.04010267
6001, 0.014365137, 0.2627623, 0.039504126
6011, 0.014365137, 0.2603681, 0.04010267
6021, 0.0131680425, 0.2579739, 0.04010267
6031, 0.009576757, 0.2549812, 0.042496864
6041, 0.00897821, 0.252587, 0.041299768
6051, 0.009576757, 0.24959426, 0.04010267
6061, 0.0119709475, 0.24720006, 0.041898318
6071, 0.012569495, 0.24600297, 0.041898318
6081, 0.0119709475, 0.24360877, 0.04010267
6091, 0.0113724, 0.24121459, 0.04309541
6102, 0.0119709475, 0.23822185, 0.044891052
6112, 0.0107738525, 0.23702475, 0.044292506
6122, 0.00897821, 0.23463057, 0.04788379
6132, 0.010175305, 0.23283492, 0.046686694
6142, 0.0107738525, 0.22984219, 0.044891052
6152, 0.0119709475, 0.22984219, 0.04010267
6162, 0.0119709475, 0.22804655, 0.041898318
6172, 0.010175305, 0.22505382, 0.04369396
6182, 0.00897821, 0.22265962, 0.047285244
6192, 0.0113724, 0.22206107, 0.049679432
6202, 0.014365137, 0.22146253, 0.046686694
6212, 0.0119709475, 0.21966688, 0.042496864
6222, 0.010175305, 0.21547705, 0.04309541
6232, 0.0119709475, 0.21068868, 0.0454896
6242, 0.010175305, 0.20889303, 0.04369396
6252, 0.0071825683, 0.2070974, 0.042496864
6262, 0.0053869262, 0.20649885, 0.044292506
6272, 0.0047883787, 0.2047032, 0.044891052
6282, 0.0047883787, 0.20051336, 0.041898318
6292, 0.0047883787, 0.19931628, 0.04010267
6302, 0.0071825683, 0.20171046, 0.04070122
6312, 0.0029927369, 0.19931628, 0.04010267
6322, 0.0023941894, 0.19692208, 0.039504126
6332, 0.0011970947, 0.195725, 0.04309541
6342, 0.0023941894, 0.1933308, 0.042496864
6352, 0.0011970947, 0.19213371, 0.041898318
6362, -5.9854734E-4, 0.19093661, 0.04010267
6372, 0.0, 0.18973951, 0.04070122
6382, 0.0, 0.18734533, 0.04070122
6392, 0.0017956421, 0.18614823, 0.039504126
6402, 0.0017956421, 0.18435259, 0.03830703
6412, 0.0065840213, 0.18435259, 0.039504126
6422, 0.0035912842, 0.1819584, 0.039504126
6432, 0.0011970947, 0.17956421, 0.039504126
6443, 0.0035912842, 0.17836712, 0.034715746
6453, 0.0029927369, 0.17657147, 0.037109938
6463, 0.0017956421, 0.17298019, 0.03830703
6473, 0.0011970947, 0.16998746, 0.037109938
6486, 0.0, 0.16639617, 0.037708484
6505, 0.0, 0.15562232, 0.04010267
6515, 0.0011970947, 0.15442522, 0.04070122
6525, 0.0017956421, 0.15442522, 0.03890558
6536, 0.0, 0.15382667, 0.04070122
6555, -0.0011970947, 0.14963683, 0.03830703
6565, -0.0017956421, 0.14484847, 0.04309541
6575, -0.0023941894, 0.14484847, 0.046686694
6585, -0.0029927369, 0.14724265, 0.0454896
6595, -0.0035912842, 0.14305282, 0.041898318
6605, -0.0035912842, 0.14125718, 0.041898318
6615, -0.0053869262, 0.14245427, 0.041898318
6625, -0.0053869262, 0.14185573, 0.046686694
6635, -0.0017956421, 0.14065863, 0.049080886
6654, -0.0035912842, 0.14006008, 0.04788379
6665, -0.0023941894, 0.1376659, 0.05027798
6675, 0.0, 0.1352717, 0.04788379
6694, -5.9854734E-4, 0.13108188, 0.04788379
6705, -0.0011970947, 0.1274906, 0.048482336
6715, -0.0029927369, 0.1262935, 0.049679432
6734, -0.0029927369, 0.12330076, 0.044891052
6745, -0.0017956421, 0.1238993, 0.041898318
6755, -0.0011970947, 0.12330076, 0.041299768
6774, 5.9854734E-4, 0.12210366, 0.037708484
6785, 0.0, 0.12030802, 0.035314295
6804, -5.9854734E-4, 0.12030802, 0.044292506
6814, -0.0017956421, 0.12330076, 0.048482336
6824, -0.0023941894, 0.12270221, 0.04788379
6834, -0.0035912842, 0.11970948, 0.044292506
6844, -0.0071825683, 0.116716735, 0.04309541
6854, -0.0053869262, 0.11432255, 0.041898318
6874, -0.0113724, 0.11132981, 0.04010267
6884, -0.0107738525, 0.11073127, 0.04309541
6894, -0.008379663, 0.11013272, 0.047285244
6904, -0.0065840213, 0.108337075, 0.047285244
6914, -0.0053869262, 0.10713998, 0.046088148
6924, -0.0047883787, 0.108935624, 0.04369396
6934, -0.0059854737, 0.10654143, 0.0454896
6953, -0.0065840213, 0.10474579, 0.047285244
6964, -0.007781116, 0.1035487, 0.0454896
6983, -0.0035912842, 0.10055596, 0.04010267
6993, -0.0053869262, 0.10055596, 0.03890558
7004, -0.0065840213, 0.099957414, 0.037708484
7023, -0.0047883787, 0.098760314, 0.042496864
7033, -0.0041898317, 0.09516903, 0.04369396
7043, -0.0023941894, 0.09337339, 0.047285244
7053, -0.0041898317, 0.09457049, 0.050876528
7063, -0.0047883787, 0.092176296, 0.049679432
7073, -0.0029927369, 0.08858501, 0.049080886
7083, -0.008379663, 0.08858501, 0.05267217
7093, -0.008379663, 0.08798646, 0.049679432
7103, -0.0071825683, 0.08499373, 0.047285244
7122, -0.010175305, 0.08678937, 0.046686694
7133, -0.012569495, 0.08619082, 0.046088148
7143, -0.0119709475, 0.08619082, 0.049080886
7153, -0.010175305, 0.082599536, 0.05027798
7173, -0.010175305, 0.08020534, 0.0454896
7183, -0.0113724, 0.08020534, 0.041898318
7202, -0.014365137, 0.07781116, 0.041898318
7213, -0.012569495, 0.07781116, 0.046686694
7223, -0.014365137, 0.07601552, 0.047285244
7242, -0.0119709475, 0.073022775, 0.05267217
7252, -0.00897821, 0.07122713, 0.050876528
7263, -0.0071825683, 0.07062859, 0.048482336
7282, -0.007781116, 0.06943149, 0.04070122
7292, -0.0071825683, 0.07242423, 0.04010267
7302, -0.0071825683, 0.07062859, 0.041898318
7312, -0.007781116, 0.06943149, 0.04070122
7322, -0.009576757, 0.0682344, 0.04369396
7342, -0.0113724, 0.0682344, 0.04788379
7352, -0.00897821, 0.06643876, 0.04788379
7362, -0.009576757, 0.065241665, 0.048482336
7372, -0.0107738525, 0.06284747, 0.0454896
7382, -0.00897821, 0.062248927, 0.04369396
7392, -0.008379663, 0.064044565, 0.044891052
7402, -0.007781116, 0.06584021, 0.046088148
7421, -0.010175305, 0.06165038, 0.048482336
7432, -0.0107738525, 0.062248927, 0.04788379
7451, -0.009576757, 0.06344602, 0.047285244
7461, -0.0119709475, 0.062248927, 0.0454896
7472, -0.012569495, 0.062248927, 0.044292506
7482, -0.0131680425, 0.056862, 0.044891052
7501, -0.01376659, 0.056263454, 0.048482336
7511, -0.01376659, 0.057460546, 0.044891052
7521, -0.0131680425, 0.058657642, 0.041299768
7531, -0.0131680425, 0.05506636, 0.04070122
7541, -0.0131680425, 0.05267217, 0.044891052
7561, -0.014963685, 0.048482336, 0.044891052
7571, -0.0131680425, 0.049080886, 0.0454896
7581, -0.0113724, 0.048482336, 0.046088148
7601, -0.014365137, 0.048482336, 0.049080886
7611, -0.016160779, 0.049679432, 0.047285244
7630, -0.01376659, 0.047285244, 0.044891052
7641, -0.01376659, 0.044891052, 0.04369396
7651, -0.0119709475, 0.044292506, 0.04788379
7670, -0.0119709475, 0.044891052, 0.046686694
7681, -0.01376659, 0.044292506, 0.04369396
7691, -0.014365137, 0.046088148, 0.042496864
7710, -0.014963685, 0.0454896, 0.03830703
7720, -0.01376659, 0.041299768, 0.041898318
7730, -0.016759327, 0.041898318, 0.042496864
7740, -0.01795642, 0.041898318, 0.042496864
7750, -0.017357873, 0.04309541, 0.041898318
7760, -0.014365137, 0.04369396, 0.041898318
7770, -0.014963685, 0.044292506, 0.046686694
7780, -0.014963685, 0.044292506, 0.049679432
7790, -0.016160779, 0.04369396, 0.05207362
7800, -0.014963685, 0.039504126, 0.05027798
7810, -0.016160779, 0.037708484, 0.049080886
7820, -0.019153515, 0.033518653, 0.041898318
7830, -0.019153515, 0.034715746, 0.04369396
7849, -0.016160779, 0.037109938, 0.04788379
7860, -0.015562232, 0.037708484, 0.046686694
7870, -0.016160779, 0.03830703, 0.049080886
7880, -0.019752063, 0.037708484, 0.05207362
7900, -0.022146253, 0.036511388, 0.05207362
7919, -0.017357873, 0.037109938, 0.05267217
7929, -0.016160779, 0.036511388, 0.050876528
7940, -0.016160779, 0.035314295, 0.047285244
7950, -0.015562232, 0.033518653, 0.041898318
7969, -0.014365137, 0.032321557, 0.046686694
7980, -0.018554969, 0.034715746, 0.046686694
7999, -0.019153515, 0.031124463, 0.048482336
8009, -0.018554969, 0.02753318, 0.0454896
8019, -0.016759327, 0.02753318, 0.042496864
8029, -0.016759327, 0.026934631, 0.04369396
8039, -0.014963685, 0.02753318, 0.04788379
8049, -0.014963685, 0.02753318, 0.048482336
8069, -0.0119709475, 0.031124463, 0.05267217
8079, -0.0131680425, 0.030525915, 0.056862
8098, -0.014963685, 0.026934631, 0.046088148
8109, -0.016160779, 0.023941895, 0.042496864
8119, -0.014365137, 0.021547705, 0.037708484
8129, -0.014963685, 0.020949159, 0.039504126
8148, -0.017357873, 0.020949159, 0.04309541
8159, -0.01795642, 0.020949159, 0.044891052
8178, -0.014963685, 0.020949159, 0.05207362
8188, -0.014365137, 0.021547705, 0.049679432
8199, -0.01376659, 0.021547705, 0.049679432
8218, -0.014963685, 0.020949159, 0.05207362
8228, -0.0131680425, 0.020949159, 0.046088148
8239, -0.0131680425, 0.018554969, 0.048482336
8258, -0.015562232, 0.019153515, 0.04788379
8268, -0.015562232, 0.018554969, 0.049080886
8278, -0.016759327, 0.01376659, 0.0454896
8288, -0.015562232, 0.012569495, 0.047285244
8298, -0.016759327, 0.0131680425, 0.04788379
8317, -0.016160779, 0.012569495, 0.04788379
8328, -0.017357873, 0.0113724, 0.05207362
8338, -0.016759327, 0.014963685, 0.053869262
8348, -0.01376659, 0.016160779, 0.055664904
8368, -0.017357873, 0.014365137, 0.05207362
8378, -0.015562232, 0.014963685, 0.053869262
8397, -0.015562232, 0.016160779, 0.046088148
8408, -0.014963685, 0.016759327, 0.04369396
8418, -0.016160779, 0.014963685, 0.0454896
8437, -0.01795642, 0.012569495, 0.048482336
8448, -0.018554969, 0.0131680425, 0.053270716
8467, -0.014365137, 0.012569495, 0.05027798
8477, -0.015562232, 0.0107738525, 0.051475074
8487, -0.014365137, 0.012569495, 0.049679432
8497, -0.014963685, 0.0131680425, 0.05207362
8507, -0.016160779, 0.010175305, 0.05207362
8517, -0.016759327, 0.0107738525, 0.049080886
8527, -0.014365137, 0.007781116, 0.04788379
8537, -0.01795642, 0.008379663, 0.048482336
8547, -0.019153515, 0.00897821, 0.048482336
8557, -0.017357873, 0.007781116, 0.047285244
8567, -0.01795642, 0.0053869262, 0.05207362
8577, -0.02035061, 0.0053869262, 0.04788379
8587, -0.020949159, 0.0071825683, 0.044292506
8597, -0.019153515, 0.008379663, 0.044292506
8616, -0.017357873, 0.007781116, 0.041898318
8627, -0.017357873, 0.0053869262, 0.0454896
8646, -0.015562232, 0.008379663, 0.05207362
8656, -0.016759327, 0.0059854737, 0.05207362
8667, -0.016160779, 0.0071825683, 0.048482336
8686, -0.016160779, 0.0071825683, 0.050876528
8696, -0.014963685, 0.0053869262, 0.05027798
8707, -0.0131680425, 0.0041898317, 0.048482336
8726, -0.016759327, 0.0029927369, 0.05027798
8736, -0.017357873, 5.9854734E-4, 0.053270716
8756, -0.019153515, -5.9854734E-4, 0.05506636
8766, -0.01795642, -0.0035912842, 0.057460546
8776, -0.018554969, -5.9854734E-4, 0.053869262
8796, -0.01795642, 0.0017956421, 0.05027798
8806, -0.017357873, 0.0035912842, 0.05207362
8825, -0.01376659, 0.0053869262, 0.05207362
8836, -0.0113724, 0.0047883787, 0.053270716
8846, -0.0131680425, 0.0029927369, 0.05207362
8865, -0.017357873, 0.0041898317, 0.051475074
8876, -0.017357873, 0.0035912842, 0.05027798
8895, -0.019153515, 0.0023941894, 0.04788379
8905, -0.020949159, 0.0041898317, 0.05027798
8915, -0.022146253, 0.0047883787, 0.051475074
8926, -0.020949159, 0.0023941894, 0.05267217
8945, -0.023941895, 5.9854734E-4, 0.054467812
8955, -0.021547705, 0.0011970947, 0.053270716
8965, -0.021547705, -5.9854734E-4, 0.053869262
8975, -0.020949159, -5.9854734E-4, 0.056263454
8985, -0.022146253, -0.0011970947, 0.056862
9005, -0.021547705, 0.0, 0.050876528
9015, -0.0227448, 0.0017956421, 0.050876528
9025, -0.019752063, 5.9854734E-4, 0.05027798
9044, -0.019752063, -0.0011970947, 0.05207362
9055, -0.020949159, 0.0, 0.054467812
9065, -0.02035061, 5.9854734E-4, 0.05267217
9084, -0.02035061, -0.0017956421, 0.046088148
9095, -0.02035061, -5.9854734E-4, 0.050876528
9114, -0.018554969, 0.0, 0.044292506
9124, -0.018554969, -0.0011970947, 0.0454896
9135, -0.018554969, -0.0023941894, 0.046686694
9154, -0.020949159, -0.0011970947, 0.053869262
9164, -0.0227448, -0.0035912842, 0.05267217
9174, -0.023941895, -0.0053869262, 0.046686694
9184, -0.020949159, -0.0035912842, 0.047285244
9194, -0.019153515, -0.0023941894, 0.044292506
9204, -0.019153515, -0.0023941894, 0.044891052
9224, -0.02035061, -0.0011970947, 0.0454896
9234, -0.019752063, -0.0035912842, 0.049679432
9244, -0.02035061, -0.0017956421, 0.053270716
9264, -0.020949159, -0.0065840213, 0.04788379
9274, -0.02035061, -0.0071825683, 0.04788379
9293, -0.016759327, -0.0023941894, 0.049080886
9304, -0.014963685, -0.0053869262, 0.051475074
9314, -0.016160779, -0.0059854737, 0.054467812
9324, -0.019153515, -0.008379663, 0.05506636
9344, -0.020949159, -0.0053869262, 0.054467812
9354, -0.02035061, -0.0029927369, 0.055664904
9373, -0.019153515, -0.007781116, 0.053270716
9383, -0.02035061, -0.0065840213, 0.050876528
9393, -0.021547705, -0.008379663, 0.05027798
9403, -0.018554969, -0.007781116, 0.050876528
9413, -0.01795642, -0.0065840213, 0.054467812
9423, -0.017357873, -0.0059854737, 0.054467812
9433, -0.018554969, -0.0053869262, 0.05506636
9443, -0.016160779, -0.0053869262, 0.053869262
9453, -0.016759327, -0.0071825683, 0.05027798
9463, -0.019153515, -0.007781116, 0.046686694
9473, -0.015562232, -0.0065840213, 0.04788379
9483, -0.016160779, -0.0047883787, 0.050876528
9493, -0.015562232, -0.0065840213, 0.05207362
9512, -0.014365137, -0.0119709475, 0.056263454
9523, -0.0131680425, -0.0113724, 0.057460546
9533, -0.01376659, -0.01376659, 0.055664904
9552, -0.0131680425, -0.0119709475, 0.053270716
9563, -0.01376659, -0.0113724, 0.05207362
9573, -0.0131680425, -0.0113724, 0.05207362
9592, -0.016160779, -0.012569495, 0.05506636
9603, -0.018554969, -0.0119709475, 0.05506636
9622, -0.021547705, -0.01376659, 0.053270716
9632, -0.02035061, -0.01376659, 0.055664904
9643, -0.022146253, -0.0131680425, 0.05506636
9662, -0.02035061, -0.01376659, 0.054467812
9672, -0.021547705, -0.01376659, 0.053270716
9682, -0.019752063, -0.01376659, 0.05506636
9692, -0.016759327, -0.0131680425, 0.053869262
9702, -0.019752063, -0.0119709475, 0.053869262
9712, -0.019752063, -0.0119709475, 0.053869262
9732, -0.023941895, -0.01795642, 0.053869262
9742, -0.020949159, -0.017357873, 0.054467812
9761, -0.01376659, -0.01795642, 0.05267217
9772, -0.016759327, -0.01795642, 0.05027798
9782, -0.019153515, -0.017357873, 0.050876528
9792, -0.019153515, -0.016759327, 0.050876528
9811, -0.020949159, -0.016160779, 0.049679432
9822, -0.020949159, -0.017357873, 0.048482336
9841, -0.021547705, -0.01376659, 0.048482336
9851, -0.023343347, -0.01376659, 0.044292506
9862, -0.023941895, -0.0119709475, 0.0454896
9881, -0.0227448, -0.0119709475, 0.0454896
9891, -0.020949159, -0.0119709475, 0.047285244
9901, -0.02035061, -0.010175305, 0.049679432
9911, -0.022146253, -0.012569495, 0.049080886
9921, -0.020949159, -0.01376659, 0.047285244
9931, -0.0227448, -0.0119709475, 0.049679432
9951, -0.01795642, -0.014365137, 0.050876528
9961, -0.019752063, -0.015562232, 0.053869262
9971, -0.022146253, -0.015562232, 0.05267217
9991, -0.022146253, -0.01795642, 0.0454896
10001, -0.0227448, -0.017357873, 0.042496864
10020, -0.024540443, -0.016160779, 0.05267217
10031, -0.023941895, -0.014963685, 0.053270716
10041, -0.023343347, -0.01376659, 0.054467812
10060, -0.0227448, -0.01795642, 0.051475074
10071, -0.0227448, -0.019153515, 0.048482336
10090, -0.022146253, -0.019153515, 0.0454896
10100, -0.02035061, -0.019153515, 0.047285244
10110, -0.02035061, -0.016759327, 0.049080886
10120, -0.02035061, -0.017357873, 0.054467812
10130, -0.021547705, -0.015562232, 0.05985474
10140, -0.023343347, -0.01376659, 0.064643115
10150, -0.024540443, -0.014963685, 0.062248927
10160, -0.02513899, -0.014963685, 0.058059096
10170, -0.024540443, -0.016759327, 0.058657642
10180, -0.021547705, -0.015562232, 0.056263454
10200, -0.020949159, -0.010175305, 0.05207362
10210, -0.02035061, -0.0113724, 0.05207362
10220, -0.020949159, -0.012569495, 0.054467812
10240, -0.0227448, -0.015562232, 0.055664904
10250, -0.02513899, -0.015562232, 0.055664904
10260, -0.0227448, -0.016160779, 0.053869262
10279, -0.02513899, -0.01795642, 0.05925619
10290, -0.023941895, -0.014963685, 0.058059096
10300, -0.023941895, -0.015562232, 0.05506636
10319, -0.02513899, -0.018554969, 0.053869262
10330, -0.023343347, -0.020949159, 0.05267217
10349, -0.0227448, -0.020949159, 0.051475074
10359, -0.0227448, -0.019752063, 0.05207362
10369, -0.023343347, -0.02035061, 0.049080886
10379, -0.0227448, -0.02035061, 0.044292506
10389, -0.023941895, -0.01795642, 0.044292506
10399, -0.025737537, -0.01795642, 0.044292506
10419, -0.023941895, -0.020949159, 0.051475074
10429, -0.022146253, -0.022146253, 0.050876528
10439, -0.022146253, -0.02035061, 0.047285244
10459, -0.023343347, -0.021547705, 0.049080886
10469, -0.022146253, -0.02035061, 0.050876528
10479, -0.0227448, -0.022146253, 0.051475074
10499, -0.021547705, -0.019752063, 0.049679432
10509, -0.02513899, -0.019752063, 0.054467812
10528, -0.026336085, -0.016160779, 0.05506636
10539, -0.02513899, -0.015562232, 0.05506636
10549, -0.025737537, -0.017357873, 0.053270716
10568, -0.023343347, -0.01795642, 0.05207362
10578, -0.023941895, -0.019153515, 0.05267217
10588, -0.02035061, -0.018554969, 0.05506636
10598, -0.02035061, -0.01795642, 0.055664904
10608, -0.022146253, -0.01795642, 0.054467812
10618, -0.020949159, -0.02035061, 0.056862
10628, -0.023941895, -0.0227448, 0.056862
10638, -0.023343347, -0.023941895, 0.053270716
10648, -0.023941895, -0.023941895, 0.05207362
10668, -0.020949159, -0.02035061, 0.05267217
10678, -0.021547705, -0.019153515, 0.05267217
10688, -0.01795642, -0.018554969, 0.04788379
10698, -0.017357873, -0.021547705, 0.044891052
10718, -0.02035061, -0.0227448, 0.041299768
10737, -0.018554969, -0.022146253, 0.042496864
10747, -0.019153515, -0.022146253, 0.044292506
10758, -0.021547705, -0.02513899, 0.0454896
10768, -0.02035061, -0.02513899, 0.049080886
10787, -0.021547705, -0.021547705, 0.053270716
10798, -0.02035061, -0.019153515, 0.053869262
10817, -0.0227448, -0.020949159, 0.053869262
10827, -0.02035061, -0.024540443, 0.056263454
10838, -0.023941895, -0.026336085, 0.055664904
10857, -0.024540443, -0.020949159, 0.058657642
10867, -0.022146253, -0.02035061, 0.05925619
10877, -0.0227448, -0.020949159, 0.057460546
10887, -0.020949159, -0.019752063, 0.055664904
10897, -0.021547705, -0.017357873, 0.051475074
10907, -0.023941895, -0.019153515, 0.050876528
10927, -0.02513899, -0.022146253, 0.046686694
10937, -0.023941895, -0.02035061, 0.046686694
10956, -0.020949159, -0.018554969, 0.04788379
10967, -0.023941895, -0.02035061, 0.047285244
10977, -0.020949159, -0.023343347, 0.0454896
10987, -0.021547705, -0.023343347, 0.046088148
11006, -0.02035061, -0.019752063, 0.05027798
11017, -0.019752063, -0.02035061, 0.051475074
11036, -0.0227448, -0.020949159, 0.049679432
11046, -0.023343347, -0.020949159, 0.049679432
11057, -0.020949159, -0.022146253, 0.04788379
11076, -0.02035061, -0.023941895, 0.047285244
11086, -0.02035061, -0.02513899, 0.048482336
11096, -0.02513899, -0.024540443, 0.049679432
11106, -0.023941895, -0.021547705, 0.04788379
11116, -0.021547705, -0.0227448, 0.049679432
11136, -0.01795642, -0.018554969, 0.047285244
11146, -0.017357873, -0.019752063, 0.05267217
11156, -0.01795642, -0.019153515, 0.05267217
11166, -0.02035061, -0.022146253, 0.05207362
11186, -0.019153515, -0.021547705, 0.049679432
11196, -0.019752063, -0.019752063, 0.05027798
11215, -0.02035061, -0.023343347, 0.049679432
11226, -0.021547705, -0.022146253, 0.05207362
11236, -0.0227448, -0.020949159, 0.049679432
11255, -0.019752063, -0.022146253, 0.049679432
11266, -0.020949159, -0.023941895, 0.053270716
11285, -0.01795642, -0.021547705, 0.05267217
11295, -0.01795642, -0.0227448, 0.056862
11305, -0.019153515, -0.0227448, 0.05207362
11315, -0.019153515, -0.02513899, 0.049080886
11325, -0.019752063, -0.024540443, 0.05027798
11335, -0.02035061, -0.025737537, 0.051475074
11345, -0.01795642, -0.023343347, 0.05207362
11355, -0.018554969, -0.024540443, 0.049679432
11365, -0.017357873, -0.024540443, 0.050876528
11375, -0.01795642, -0.024540443, 0.048482336
11385, -0.019752063, -0.026336085, 0.049679432
11395, -0.019153515, -0.023941895, 0.04788379
11405, -0.023941895, -0.023941895, 0.04788379
11415, -0.024540443, -0.023941895, 0.04788379
11435, -0.024540443, -0.026336085, 0.05027798
11445, -0.023941895, -0.026336085, 0.053270716
11464, -0.023343347, -0.028730273, 0.055664904
11474, -0.021547705, -0.028131727, 0.05506636
11485, -0.0227448, -0.026336085, 0.049679432
11495, -0.022146253, -0.02513899, 0.05207362
11514, -0.018554969, -0.023343347, 0.051475074
11525, -0.019752063, -0.023941895, 0.049080886
11544, -0.019153515, -0.023941895, 0.050876528
11554, -0.020949159, -0.022146253, 0.046088148
11565, -0.021547705, -0.021547705, 0.053869262
11584, -0.019752063, -0.023343347, 0.053270716
11594, -0.019752063, -0.021547705, 0.05207362
11614, -0.0227448, -0.019752063, 0.056263454
11624, -0.022146253, -0.02035061, 0.056862
11634, -0.023343347, -0.02035061, 0.05506636
11654, -0.020949159, -0.021547705, 0.053270716
11664, -0.022146253, -0.020949159, 0.053270716
11683, -0.02035061, -0.024540443, 0.049679432
11694, -0.021547705, -0.026336085, 0.05027798
11713, -0.02035061, -0.028730273, 0.05267217
11723, -0.02035061, -0.028131727, 0.053869262
11734, -0.021547705, -0.028730273, 0.047285244
11744, -0.023941895, -0.028730273, 0.049080886
11763, -0.023941895, -0.025737537, 0.048482336
11773, -0.02513899, -0.024540443, 0.047285244
11783, -0.023343347, -0.023941895, 0.0454896
11793, -0.023343347, -0.022146253, 0.048482336
11803, -0.0227448, -0.019153515, 0.05027798
11813, -0.0227448, -0.021547705, 0.049080886
11823, -0.022146253, -0.019153515, 0.048482336
11833, -0.019153515, -0.019752063, 0.051475074
11843, -0.019153515, -0.020949159, 0.051475074
11863, -0.0227448, -0.024540443, 0.05027798
11873, -0.023941895, -0.024540443, 0.048482336
11883, -0.022146253, -0.025737537, 0.048482336
11902, -0.021547705, -0.023941895, 0.05027798
11913, -0.02035061, -0.024540443, 0.05267217
11923, -0.016759327, -0.025737537, 0.055664904
11942, -0.016160779, -0.026336085, 0.048482336
11953, -0.018554969, -0.02753318, 0.04788379
11972, -0.021547705, -0.023941895, 0.0454896
11982, -0.020949159, -0.023941895, 0.049080886
11993, -0.0227448, -0.023941895, 0.05207362
12012, -0.0227448, -0.023343347, 0.049679432
12022, -0.021547705, -0.023343347, 0.051475074
12032, -0.021547705, -0.0227448, 0.05267217
12042, -0.024540443, -0.022146253, 0.050876528
12052, -0.023343347, -0.02513899, 0.053869262
12062, -0.020949159, -0.024540443, 0.05207362
12082, -0.018554969, -0.024540443, 0.046686694
12092, -0.019153515, -0.026336085, 0.044891052
12102, -0.019752063, -0.026934631, 0.047285244
12122, -0.020949159, -0.028131727, 0.049679432
12132, -0.02035061, -0.02753318, 0.04788379
12142, -0.02035061, -0.025737537, 0.05027798
12162, -0.017357873, -0.022146253, 0.055664904
12172, -0.017357873, -0.0227448, 0.05267217
12191, -0.019153515, -0.026336085, 0.053869262
12201, -0.017357873, -0.026336085, 0.054467812
12212, -0.02035061, -0.028730273, 0.053270716
12231, -0.018554969, -0.02753318, 0.05925619
12241, -0.017357873, -0.026336085, 0.057460546
12251, -0.019752063, -0.026934631, 0.054467812
12261, -0.021547705, -0.02513899, 0.05267217
12271, -0.021547705, -0.023941895, 0.05027798
12281, -0.022146253, -0.026336085, 0.048482336
12291, -0.022146253, -0.023941895, 0.046686694
12301, -0.023343347, -0.025737537, 0.044891052
12311, -0.0227448, -0.024540443, 0.048482336
12321, -0.020949159, -0.02513899, 0.05207362
12331, -0.022146253, -0.026934631, 0.053270716
12341, -0.019153515, -0.02753318, 0.05207362
12351, -0.02035061, -0.026934631, 0.05027798
12370, -0.021547705, -0.028730273, 0.04369396
12381, -0.019752063, -0.030525915, 0.044891052
12400, -0.022146253, -0.028131727, 0.04788379
12410, -0.02513899, -0.030525915, 0.051475074
12421, -0.026336085, -0.031124463, 0.05207362
12431, -0.02513899, -0.02992737, 0.04788379
12450, -0.021547705, -0.02753318, 0.055664904
12461, -0.02035061, -0.026336085, 0.055664904
12480, -0.020949159, -0.02513899, 0.054467812
12490, -0.019752063, -0.026336085, 0.05207362
12500, -0.01795642, -0.025737537, 0.056263454
12510, -0.019752063, -0.02513899, 0.060453285
12520, -0.023343347, -0.02513899, 0.06105183
12530, -0.023941895, -0.02513899, 0.062248927
12550, -0.02513899, -0.026336085, 0.05027798
12560, -0.02513899, -0.026336085, 0.049679432
12570, -0.023343347, -0.026336085, 0.049679432
12590, -0.021547705, -0.02753318, 0.04788379
12600, -0.020949159, -0.026934631, 0.050876528
12610, -0.021547705, -0.025737537, 0.048482336
12630, -0.020949159, -0.026934631, 0.051475074
12640, -0.022146253, -0.028730273, 0.05506636
12659, -0.020949159, -0.025737537, 0.05506636
12669, -0.02035061, -0.025737537, 0.053869262
12680, -0.020949159, -0.023941895, 0.048482336
12699, -0.019752063, -0.0227448, 0.053869262
12709, -0.02035061, -0.024540443, 0.05027798
12720, -0.020949159, -0.023941895, 0.05207362
12739, -0.021547705, -0.02513899, 0.049080886
12749, -0.02035061, -0.026336085, 0.053270716
12759, -0.020949159, -0.026336085, 0.050876528
12769, -0.022146253, -0.023941895, 0.049679432
12779, -0.024540443, -0.024540443, 0.050876528
12789, -0.026336085, -0.02513899, 0.050876528
12809, -0.024540443, -0.023343347, 0.051475074
12819, -0.023941895, -0.024540443, 0.048482336
12829, -0.022146253, -0.023343347, 0.049679432
12849, -0.023941895, -0.023343347, 0.056862
12859, -0.023343347, -0.023941895, 0.05506636
12878, -0.0227448, -0.022146253, 0.05207362
12889, -0.019752063, -0.024540443, 0.05027798
12908, -0.023941895, -0.02753318, 0.046686694
12918, -0.020949159, -0.028131727, 0.053869262
12929, -0.02035061, -0.026934631, 0.049679432
12948, -0.019752063, -0.026336085, 0.05027798
12958, -0.018554969, -0.023343347, 0.048482336
12978, -0.018554969, -0.022146253, 0.050876528
12988, -0.019752063, -0.024540443, 0.0454896
12998, -0.01795642, -0.02513899, 0.04788379
13008, -0.019752063, -0.02513899, 0.049679432
13018, -0.019153515, -0.024540443, 0.046088148
13028, -0.022146253, -0.026934631, 0.04309541
13038, -0.020949159, -0.026336085, 0.04070122
13058, -0.023941895, -0.023941895, 0.048482336
13068, -0.020949159, -0.023941895, 0.049679432
13087, -0.021547705, -0.023941895, 0.04788379
13097, -0.024540443, -0.023343347, 0.046686694
13108, -0.02513899, -0.025737537, 0.051475074
13118, -0.023343347, -0.029328821, 0.05207362
13137, -0.023343347, -0.025737537, 0.056263454
13148, -0.02035061, -0.025737537, 0.056263454
13167, -0.021547705, -0.024540443, 0.056263454
13177, -0.020949159, -0.025737537, 0.05207362
13188, -0.022146253, -0.023343347, 0.051475074
13207, -0.023941895, -0.0227448, 0.05207362
13217, -0.022146253, -0.023941895, 0.051475074
13227, -0.022146253, -0.023941895, 0.051475074
13237, -0.022146253, -0.023941895, 0.05207362
13247, -0.022146253, -0.023941895, 0.050876528
13266, -0.020949159, -0.024540443, 0.04788379
13277, -0.020949159, -0.023343347, 0.046686694
13287, -0.0227448, -0.026336085, 0.047285244
13297, -0.022146253, -0.026336085, 0.049080886
13317, -0.019752063, -0.026336085, 0.046088148
13327, -0.02035061, -0.02513899, 0.046686694
13346, -0.023343347, -0.022146253, 0.046686694
13357, -0.02513899, -0.023343347, 0.049679432
13367, -0.019153515, -0.023941895, 0.046088148
13386, -0.02035061, -0.023343347, 0.04788379
13396, -0.02035061, -0.024540443, 0.04788379
13406, -0.019752063, -0.026934631, 0.04788379
13416, -0.018554969, -0.028131727, 0.049679432
13426, -0.01795642, -0.026934631, 0.04788379
13436, -0.018554969, -0.023941895, 0.046686694
13446, -0.01795642, -0.025737537, 0.0454896
13456, -0.019752063, -0.02753318, 0.046686694
13466, -0.020949159, -0.028131727, 0.046088148
13486, -0.024540443, -0.023343347, 0.0454896
13496, -0.021547705, -0.02035061, 0.04788379
13506, -0.019153515, -0.020949159, 0.046686694
13526, -0.020949159, -0.023343347, 0.044292506
13536, -0.0227448, -0.02513899, 0.049679432
13546, -0.023343347, -0.023941895, 0.04788379
13565, -0.019752063, -0.02513899, 0.044292506
13576, -0.018554969, -0.025737537, 0.0454896
13595, -0.017357873, -0.026336085, 0.05027798
13605, -0.02035061, -0.025737537, 0.05207362
13616, -0.02035061, -0.026934631, 0.046686694
13635, -0.023343347, -0.024540443, 0.048482336
13645, -0.023343347, -0.02513899, 0.046088148
13656, -0.022146253, -0.025737537, 0.046686694
13675, -0.022146253, -0.023941895, 0.0454896
13685, -0.023343347, -0.026336085, 0.04788379
13696, -0.02513899, -0.026934631, 0.046686694
13715, -0.0227448, -0.02513899, 0.047285244
13725, -0.023343347, -0.0227448, 0.049080886
13745, -0.023941895, -0.02513899, 0.05207362
13755, -0.021547705, -0.026934631, 0.050876528
13765, -0.023343347, -0.026934631, 0.05027798
13785, -0.024540443, -0.025737537, 0.05506636
13795, -0.02513899, -0.025737537, 0.056862
13814, -0.025737537, -0.029328821, 0.051475074
13825, -0.023941895, -0.031124463, 0.051475074
13835, -0.0227448, -0.02992737, 0.049080886
13854, -0.026934631, -0.033518653, 0.046088148
13864, -0.023941895, -0.031124463, 0.049080886
13874, -0.02035061, -0.032321557, 0.05267217
13884, -0.02035061, -0.030525915, 0.054467812
13894, -0.020949159, -0.029328821, 0.055664904
13904, -0.020949159, -0.028730273, 0.053869262
13914, -0.023343347, -0.028131727, 0.05267217
13924, -0.023343347, -0.028131727, 0.050876528
13934, -0.021547705, -0.02753318, 0.05027798
13944, -0.021547705, -0.0227448, 0.05027798
13954, -0.023343347, -0.023941895, 0.05207362
13964, -0.025737537, -0.023343347, 0.054467812
13974, -0.026336085, -0.023941895, 0.05027798
13993, -0.023941895, -0.025737537, 0.05207362
14004, -0.023343347, -0.023941895, 0.05267217
14014, -0.023941895, -0.023343347, 0.053869262
14033, -0.020949159, -0.022146253, 0.05267217
14044, -0.016160779, -0.023343347, 0.05267217
14054, -0.016160779, -0.024540443, 0.05027798
14073, -0.019752063, -0.02513899, 0.048482336
14084, -0.019153515, -0.026934631, 0.04788379
14094, -0.01795642, -0.028730273, 0.046088148
14113, -0.019752063, -0.02513899, 0.05027798
14124, -0.01795642, -0.02513899, 0.048482336
14143, -0.019752063, -0.02513899, 0.049080886
14153, -0.021547705, -0.023941895, 0.051475074
14163, -0.021547705, -0.023343347, 0.05207362
14173, -0.021547705, -0.023343347, 0.051475074
14183, -0.020949159, -0.022146253, 0.05506636
14193, -0.024540443, -0.023941895, 0.05267217
14213, -0.02513899, -0.026336085, 0.051475074
14223, -0.028730273, -0.02513899, 0.05027798
14233, -0.028131727, -0.025737537, 0.046088148
14253, -0.023941895, -0.024540443, 0.041299768
14263, -0.023941895, -0.0227448, 0.046088148
14282, -0.0227448, -0.028730273, 0.046686694
14292, -0.023343347, -0.02753318, 0.048482336
14303, -0.023941895, -0.028131727, 0.049679432
14322, -0.023343347, -0.025737537, 0.056862
14332, -0.022146253, -0.025737537, 0.05267217
14342, -0.020949159, -0.02753318, 0.051475074
14352, -0.0227448, -0.028730273, 0.049080886
14362, -0.021547705, -0.02753318, 0.047285244
14372, -0.021547705, -0.02513899, 0.046686694
14382, -0.019752063, -0.024540443, 0.050876528
14392, -0.02035061, -0.02513899, 0.049679432
14402, -0.020949159, -0.024540443, 0.05027798
14412, -0.019752063, -0.025737537, 0.05027798
14422, -0.019153515, -0.023343347, 0.049679432
14432, -0.017357873, -0.024540443, 0.047285244
14442, -0.016160779, -0.023941895, 0.046088148
14461, -0.018554969, -0.02035061, 0.051475074
14472, -0.02035061, -0.022146253, 0.05207362
14482, -0.01795642, -0.02513899, 0.05267217
14501, -0.021547705, -0.023941895, 0.055664904
14512, -0.0227448, -0.023343347, 0.056263454
14522, -0.018554969, -0.0227448, 0.055664904
14541, -0.018554969, -0.019752063, 0.054467812
14552, -0.01376659, -0.019752063, 0.056263454
14562, -0.01795642, -0.019752063, 0.055664904
14581, -0.017357873, -0.021547705, 0.05506636
14592, -0.015562232, -0.020949159, 0.053270716
14611, -0.01376659, -0.022146253, 0.05267217
14621, -0.01376659, -0.0227448, 0.05267217
14631, -0.01376659, -0.019153515, 0.05207362
14641, -0.0119709475, -0.017357873, 0.053270716
14651, -0.01376659, -0.014963685, 0.053869262
14661, -0.016759327, -0.01376659, 0.05027798
14671, -0.017357873, -0.014365137, 0.04788379
14681, -0.015562232, -0.014365137, 0.04788379
14691, -0.017357873, -0.016759327, 0.047285244
14701, -0.01795642, -0.014963685, 0.049080886
14721, -0.016759327, -0.019153515, 0.051475074
14731, -0.017357873, -0.01795642, 0.051475074
14750, -0.015562232, -0.017357873, 0.050876528
14760, -0.014365137, -0.01795642, 0.047285244
14771, -0.014963685, -0.016759327, 0.04788379
14781, -0.015562232, -0.016160779, 0.048482336
14800, -0.014365137, -0.014365137, 0.046686694
14811, -0.0131680425, -0.0131680425, 0.047285244
14830, -0.014365137, -0.0119709475, 0.049679432
14840, -0.0131680425, -0.0119709475, 0.050876528
14851, -0.012569495, -0.014365137, 0.049679432
14870, -0.016759327, -0.01376659, 0.047285244
14880, -0.01795642, -0.012569495, 0.046686694
14900, -0.014963685, -0.0131680425, 0.04788379
14910, -0.0131680425, -0.0131680425, 0.048482336
14920, -0.014963685, -0.0113724, 0.049679432
14940, -0.017357873, -0.0131680425, 0.050876528
14950, -0.014963685, -0.015562232, 0.049080886
14969, -0.014963685, -0.0119709475, 0.051475074
14980, -0.01376659, -0.0119709475, 0.049679432
14990, -0.0113724, -0.0113724, 0.048482336
15009, -0.0119709475, -0.0107738525, 0.050876528
15020, -0.0131680425, -0.010175305, 0.049679432
15039, -0.0119709475, -0.0107738525, 0.051475074
15049, -0.0107738525, -0.00897821, 0.051475074
15059, -0.0119709475, -0.007781116, 0.050876528
15070, -0.012569495, -0.008379663, 0.054467812
15089, -0.014365137, -0.0071825683, 0.044292506
