currentMillis	ax	ay	az
0	 0.0	 0.0	 0.0
0	 0.0	 0.0	 0.0
0	 0.0	 0.0	 0.0
0	 0.0	 0.0	 0.0
0	 0.0	 0.0	 0.0
10006	 0.0	 0.0	 0.0
10016	 -0.02035061	 -0.010175305	 0.089782104
10027	 -0.02035061	 -0.010175305	 0.08499373
10037	 -0.018554969	 -0.010175305	 0.08439518
10047	 -0.016759327	 -0.0107738525	 0.082599536
10057	 -0.018554969	 -0.009576757	 0.08020534
10067	 -0.020949159	 -0.008379663	 0.0784097
10077	 -0.021547705	 -0.0059854737	 0.082599536
10087	 -0.018554969	 -0.0065840213	 0.0784097
10097	 -0.016759327	 -0.008379663	 0.07721261
10107	 -0.016759327	 -0.010175305	 0.07781116
10117	 -0.016759327	 -0.010175305	 0.07541697
10127	 -0.017357873	 -0.0107738525	 0.07541697
10137	 -0.016160779	 -0.00897821	 0.07242423
10147	 -0.016759327	 -0.009576757	 0.07541697
10157	 -0.016160779	 -0.008379663	 0.07661406
10167	 -0.017357873	 -0.009576757	 0.073022775
10177	 -0.019153515	 -0.0071825683	 0.07481842
10187	 -0.019153515	 -0.0047883787	 0.074219875
10198	 -0.019752063	 -0.0023941894	 0.07721261
10208	 -0.017357873	 -0.0011970947	 0.07721261
10218	 -0.015562232	 -0.0023941894	 0.0784097
10228	 -0.014963685	 -0.0053869262	 0.08020534
10238	 -0.015562232	 -0.0053869262	 0.082000986
10248	 -0.014963685	 -0.0053869262	 0.08080389
10258	 -0.018554969	 -0.0059854737	 0.07661406
10268	 -0.019752063	 -0.008379663	 0.07781116
10278	 -0.019752063	 -0.0113724	 0.07182568
10288	 -0.020949159	 -0.008379663	 0.073022775
10298	 -0.01795642	 -0.00897821	 0.07122713
10308	 -0.019752063	 -0.007781116	 0.07481842
10318	 -0.018554969	 -0.007781116	 0.07541697
10328	 -0.019153515	 -0.0065840213	 0.07242423
10338	 -0.02035061	 -0.0071825683	 0.07481842
10348	 -0.019153515	 -0.0071825683	 0.07481842
10358	 -0.016160779	 -0.008379663	 0.07601552
10368	 -0.016759327	 -0.007781116	 0.07900825
10378	 -0.017357873	 -0.0107738525	 0.0796068
10388	 -0.016160779	 -0.008379663	 0.0796068
10398	 -0.014365137	 -0.007781116	 0.07900825
10408	 -0.01376659	 -0.0065840213	 0.073022775
10418	 -0.01376659	 -0.0065840213	 0.07601552
10428	 -0.0119709475	 -0.009576757	 0.074219875
10438	 -0.01376659	 -0.012569495	 0.07781116
10448	 -0.0119709475	 -0.014365137	 0.08020534
10458	 -0.009576757	 -0.016160779	 0.08140244
10468	 -0.010175305	 -0.014963685	 0.08140244
10478	 -0.0113724	 -0.0119709475	 0.0796068
10488	 -0.01376659	 -0.00897821	 0.0796068
10498	 -0.015562232	 -0.008379663	 0.0784097
10508	 -0.015562232	 -0.0071825683	 0.0784097
10518	 -0.019153515	 -0.0071825683	 0.0784097
10528	 -0.01795642	 -0.0053869262	 0.0784097
10539	 -0.018554969	 -0.008379663	 0.083198085
10549	 -0.019752063	 -0.0065840213	 0.08858501
10559	 -0.020949159	 -0.0059854737	 0.08918356
10569	 -0.01795642	 -0.0035912842	 0.08619082
10579	 -0.01795642	 -0.0041898317	 0.08499373
10589	 -0.014365137	 -0.0035912842	 0.083796635
10599	 -0.014963685	 -0.0035912842	 0.08140244
10609	 -0.01376659	 -0.0047883787	 0.08020534
10619	 -0.01376659	 -0.0035912842	 0.082599536
10629	 -0.015562232	 -0.0053869262	 0.082599536
10639	 -0.017357873	 -0.0035912842	 0.08559228
10649	 -0.016160779	 -0.0053869262	 0.08559228
10659	 -0.016160779	 -0.0065840213	 0.08559228
10669	 -0.016759327	 -0.009576757	 0.08499373
10679	 -0.01376659	 -0.0107738525	 0.08798646
10689	 -0.0131680425	 -0.009576757	 0.083796635
10699	 -0.0119709475	 -0.00897821	 0.0784097
10710	 -0.0119709475	 -0.00897821	 0.07781116
10723	 -0.01795642	 -0.010175305	 0.082000986
10733	 -0.019153515	 -0.008379663	 0.07781116
10743	 -0.01795642	 -0.00897821	 0.0784097
10753	 -0.01795642	 -0.0107738525	 0.0784097
10763	 -0.01795642	 -0.007781116	 0.07900825
10773	 -0.017357873	 -0.008379663	 0.08020534
10783	 -0.01795642	 -0.0071825683	 0.07601552
10793	 -0.020949159	 -0.0113724	 0.0796068
10803	 -0.02035061	 -0.014365137	 0.083198085
10813	 -0.019752063	 -0.016160779	 0.083198085
10823	 -0.02035061	 -0.014365137	 0.083198085
10833	 -0.020949159	 -0.0119709475	 0.08140244
10843	 -0.022146253	 -0.009576757	 0.07900825
10853	 -0.022146253	 -0.0065840213	 0.08140244
10863	 -0.0227448	 -0.00897821	 0.08499373
10873	 -0.019153515	 -0.00897821	 0.083796635
10883	 -0.016759327	 -0.0113724	 0.08020534
10893	 -0.01795642	 -0.0119709475	 0.07721261
10903	 -0.019752063	 -0.0107738525	 0.08020534
10913	 -0.019752063	 -0.010175305	 0.074219875
10923	 -0.019153515	 -0.00897821	 0.07242423
10933	 -0.019752063	 -0.007781116	 0.07721261
10943	 -0.019153515	 -0.0047883787	 0.0784097
10953	 -0.02035061	 -0.0059854737	 0.0796068
10963	 -0.019752063	 -0.007781116	 0.0796068
10973	 -0.018554969	 -0.0059854737	 0.07900825
10983	 -0.019752063	 -0.0053869262	 0.0784097
10993	 -0.019153515	 -0.0041898317	 0.07661406
11003	 -0.018554969	 -0.0047883787	 0.07781116
11013	 -0.019153515	 -0.0071825683	 0.07541697
11023	 -0.017357873	 -0.0065840213	 0.07541697
11033	 -0.015562232	 -0.0065840213	 0.07541697
11043	 -0.017357873	 -0.007781116	 0.07721261
11053	 -0.017357873	 -0.009576757	 0.07781116
11063	 -0.019752063	 -0.009576757	 0.0796068
11073	 -0.0227448	 -0.009576757	 0.08140244
11083	 -0.020949159	 -0.012569495	 0.082000986
11094	 -0.019752063	 -0.0131680425	 0.082000986
11104	 -0.020949159	 -0.0119709475	 0.08140244
11114	 -0.022146253	 -0.0113724	 0.08140244
11124	 -0.022146253	 -0.009576757	 0.083796635
11134	 -0.022146253	 -0.010175305	 0.082599536
11144	 -0.02035061	 -0.007781116	 0.08439518
11154	 -0.019153515	 -0.0059854737	 0.083796635
11164	 -0.019153515	 -0.0059854737	 0.08020534
11174	 -0.017357873	 -0.0047883787	 0.08140244
11184	 -0.01376659	 -0.0065840213	 0.07900825
11194	 -0.015562232	 -0.009576757	 0.0784097
11204	 -0.014365137	 -0.00897821	 0.08080389
11214	 -0.014365137	 -0.010175305	 0.08439518
11224	 -0.015562232	 -0.00897821	 0.08499373
11234	 -0.014365137	 -0.0053869262	 0.082000986
11244	 -0.012569495	 -0.0065840213	 0.082000986
11254	 -0.012569495	 -0.00897821	 0.083796635
11264	 -0.01376659	 -0.008379663	 0.083796635
11274	 -0.016759327	 -0.009576757	 0.08080389
11284	 -0.016759327	 -0.010175305	 0.082000986
11294	 -0.01795642	 -0.0119709475	 0.082599536
11304	 -0.019153515	 -0.0107738525	 0.08439518
11314	 -0.019153515	 -0.00897821	 0.082000986
11324	 -0.019752063	 -0.008379663	 0.083796635
11334	 -0.019153515	 -0.00897821	 0.07900825
11344	 -0.016759327	 -0.007781116	 0.0784097
11354	 -0.014365137	 -0.0065840213	 0.07721261
11364	 -0.014963685	 -0.0035912842	 0.082599536
11374	 -0.014963685	 -0.007781116	 0.083198085
11384	 -0.016759327	 -0.008379663	 0.0796068
11394	 -0.01795642	 -0.007781116	 0.07481842
11404	 -0.018554969	 -0.007781116	 0.07661406
11414	 -0.01795642	 -0.009576757	 0.0796068
11424	 -0.017357873	 -0.010175305	 0.07601552
11435	 -0.016759327	 -0.0119709475	 0.07661406
11445	 -0.01795642	 -0.012569495	 0.07481842
11455	 -0.016160779	 -0.01376659	 0.07182568
11465	 -0.01795642	 -0.014365137	 0.06943149
11475	 -0.016160779	 -0.014365137	 0.064643115
11485	 -0.016759327	 -0.0131680425	 0.065241665
11495	 -0.016759327	 -0.012569495	 0.0682344
11505	 -0.02035061	 -0.0113724	 0.06763585
11515	 -0.019153515	 -0.010175305	 0.07122713
11525	 -0.018554969	 -0.0071825683	 0.07242423
11535	 -0.02035061	 -0.0047883787	 0.073621325
11545	 -0.018554969	 -0.007781116	 0.07182568
11555	 -0.018554969	 -0.0059854737	 0.07601552
11565	 -0.02035061	 -0.0071825683	 0.07541697
11575	 -0.017357873	 -0.0065840213	 0.07781116
11585	 -0.017357873	 -0.0041898317	 0.07601552
11595	 -0.01795642	 -0.0065840213	 0.07481842
11606	 -0.017357873	 -0.0059854737	 0.07721261
11616	 -0.01795642	 -0.008379663	 0.07661406
11629	 -0.017357873	 -0.007781116	 0.07541697
11639	 -0.016759327	 -0.008379663	 0.07781116
11649	 -0.019752063	 -0.0113724	 0.07721261
11659	 -0.018554969	 -0.010175305	 0.07661406
11669	 -0.018554969	 -0.0065840213	 0.082000986
11679	 -0.018554969	 -0.0059854737	 0.0796068
11689	 -0.019752063	 -0.0071825683	 0.0784097
11699	 -0.01795642	 -0.00897821	 0.07661406
11709	 -0.018554969	 -0.008379663	 0.07721261
11719	 -0.018554969	 -0.0053869262	 0.08020534
11729	 -0.019153515	 -0.0065840213	 0.083198085
11739	 -0.019153515	 -0.007781116	 0.082000986
11749	 -0.019153515	 -0.0065840213	 0.08020534
11759	 -0.02035061	 -0.0071825683	 0.0796068
11769	 -0.01795642	 -0.0065840213	 0.082599536
11779	 -0.018554969	 -0.009576757	 0.082599536
11789	 -0.019752063	 -0.007781116	 0.082599536
11799	 -0.0227448	 -0.0107738525	 0.08080389
11809	 -0.023941895	 -0.012569495	 0.08439518
11819	 -0.024540443	 -0.01376659	 0.0796068
11829	 -0.022146253	 -0.014365137	 0.07721261
11839	 -0.01795642	 -0.016759327	 0.074219875
11849	 -0.016160779	 -0.01376659	 0.074219875
11859	 -0.016759327	 -0.012569495	 0.074219875
11869	 -0.016759327	 -0.012569495	 0.07721261
11879	 -0.014365137	 -0.012569495	 0.07900825
11889	 -0.0131680425	 -0.0107738525	 0.07900825
11899	 -0.0119709475	 -0.0065840213	 0.082599536
11909	 -0.0119709475	 -0.00897821	 0.082000986
11919	 -0.01376659	 -0.0071825683	 0.08080389
11929	 -0.016759327	 -0.0065840213	 0.082000986
11939	 -0.016160779	 -0.0047883787	 0.0796068
11949	 -0.01795642	 -0.0035912842	 0.083796635
11959	 -0.019153515	 -0.0047883787	 0.08140244
11969	 -0.01795642	 -0.0047883787	 0.08559228
11979	 -0.018554969	 -0.0023941894	 0.083198085
11990	 -0.017357873	 -0.0041898317	 0.08140244
12000	 -0.016759327	 -0.0047883787	 0.0796068
12010	 -0.019153515	 -0.0059854737	 0.07661406
12020	 -0.020949159	 -0.007781116	 0.0796068
12030	 -0.02035061	 -0.009576757	 0.07900825
12040	 -0.019752063	 -0.010175305	 0.08020534
12050	 -0.01795642	 -0.0107738525	 0.07781116
12060	 -0.017357873	 -0.0119709475	 0.0784097
12070	 -0.01795642	 -0.0107738525	 0.07900825
12080	 -0.017357873	 -0.010175305	 0.08020534
12090	 -0.016759327	 -0.0107738525	 0.07721261
12100	 -0.01795642	 -0.0107738525	 0.07541697
12110	 -0.01795642	 -0.01376659	 0.07003004
12120	 -0.016759327	 -0.0107738525	 0.065241665
12130	 -0.01795642	 -0.007781116	 0.06643876
12140	 -0.017357873	 -0.00897821	 0.06883295
12150	 -0.018554969	 -0.00897821	 0.074219875
12160	 -0.017357873	 -0.008379663	 0.07661406
12170	 -0.01795642	 -0.0113724	 0.074219875
12180	 -0.019752063	 -0.00897821	 0.07601552
12190	 -0.017357873	 -0.00897821	 0.0784097
12200	 -0.016160779	 -0.0071825683	 0.08020534
12210	 -0.017357873	 -0.007781116	 0.082599536
12220	 -0.018554969	 -0.00897821	 0.0784097
12230	 -0.01795642	 -0.009576757	 0.07721261
12240	 -0.018554969	 -0.008379663	 0.07781116
12250	 -0.016759327	 -0.0071825683	 0.07661406
12260	 -0.016759327	 -0.0059854737	 0.07900825
12270	 -0.017357873	 -0.007781116	 0.07781116
12280	 -0.01795642	 -0.0065840213	 0.07661406
12290	 -0.019752063	 -0.0065840213	 0.07781116
12300	 -0.021547705	 -0.0071825683	 0.07601552
12310	 -0.019752063	 -0.008379663	 0.08020534
12320	 -0.019752063	 -0.009576757	 0.08080389
12331	 -0.017357873	 -0.00897821	 0.08439518
12341	 -0.016759327	 -0.0071825683	 0.08140244
12351	 -0.015562232	 -0.0041898317	 0.07900825
12361	 -0.01376659	 -0.0059854737	 0.0796068
12371	 -0.014963685	 -0.0047883787	 0.0784097
12381	 -0.016759327	 -0.0059854737	 0.083198085
12391	 -0.014963685	 -0.0029927369	 0.083198085
12401	 -0.016759327	 -0.0029927369	 0.083796635
12411	 -0.019752063	 -0.0047883787	 0.08619082
12421	 -0.018554969	 -0.0059854737	 0.08678937
12431	 -0.019153515	 -0.00897821	 0.083796635
12441	 -0.017357873	 -0.00897821	 0.08140244
12451	 -0.02035061	 -0.009576757	 0.0784097
12461	 -0.020949159	 -0.012569495	 0.07541697
12471	 -0.01795642	 -0.009576757	 0.07601552
12481	 -0.016759327	 -0.0119709475	 0.07781116
12491	 -0.014963685	 -0.0107738525	 0.0796068
12502	 -0.017357873	 -0.00897821	 0.083198085
12512	 -0.015562232	 -0.0059854737	 0.08020534
12522	 -0.016160779	 -0.0065840213	 0.07781116
12534	 -0.018554969	 -0.00897821	 0.07900825
12545	 -0.01795642	 -0.0065840213	 0.08020534
12555	 -0.019153515	 -0.00897821	 0.0784097
12565	 -0.019752063	 -0.010175305	 0.08140244
12575	 -0.018554969	 -0.009576757	 0.083198085
12585	 -0.017357873	 -0.0065840213	 0.08559228
12595	 -0.018554969	 -0.0035912842	 0.08499373
12605	 -0.02035061	 -0.0035912842	 0.082599536
12615	 -0.018554969	 -0.0059854737	 0.08140244
12625	 -0.016759327	 -0.0029927369	 0.08140244
12635	 -0.019153515	 0.0	 0.08020534
12645	 -0.020949159	 5.9854734E-4	 0.0796068
12655	 -0.02035061	 0.0	 0.082000986
12665	 -0.022146253	 5.9854734E-4	 0.083198085
12675	 -0.022146253	 0.0011970947	 0.08439518
12685	 -0.0227448	 0.0	 0.08140244
12695	 -0.019752063	 -0.0041898317	 0.07601552
12705	 -0.019153515	 -0.0065840213	 0.07242423
12715	 -0.021547705	 -0.0071825683	 0.08080389
12725	 -0.022146253	 -0.007781116	 0.07900825
12735	 -0.023941895	 -0.0053869262	 0.08439518
12745	 -0.02513899	 -0.0035912842	 0.08499373
12755	 -0.025737537	 -0.0035912842	 0.08678937
12765	 -0.030525915	 -0.0011970947	 0.092176296
12775	 -0.026934631	 -0.00897821	 0.08439518
12785	 -0.033518653	 0.010175305	 0.09756322
12795	 -0.02992737	 0.012569495	 0.09636613
12805	 -0.0227448	 0.007781116	 0.083796635
12815	 -0.025737537	 0.0071825683	 0.08678937
12825	 -0.02513899	 0.0059854737	 0.08619082
12835	 -0.025737537	 0.0023941894	 0.092774846
12845	 -0.02513899	 -0.0029927369	 0.08858501
12855	 -0.02513899	 -0.009576757	 0.08619082
12865	 -0.024540443	 -0.01376659	 0.082000986
12875	 -0.020949159	 -0.014365137	 0.08140244
12886	 -0.022146253	 -0.0113724	 0.08738792
12896	 -0.025737537	 -0.0035912842	 0.092774846
12906	 -0.025737537	 0.0	 0.08918356
12916	 -0.0227448	 -0.0035912842	 0.08499373
12926	 -0.020949159	 -0.01376659	 0.0784097
12936	 -0.019153515	 -0.024540443	 0.074219875
12946	 -0.022146253	 -0.02753318	 0.07781116
12956	 -0.0227448	 -0.02753318	 0.07601552
12966	 -0.020949159	 -0.023941895	 0.07781116
12976	 -0.02035061	 -0.0131680425	 0.083198085
12986	 -0.022146253	 -0.0059854737	 0.08918356
12996	 -0.019752063	 -0.0053869262	 0.089782104
13006	 -0.021547705	 -0.0029927369	 0.09516903
13016	 -0.020949159	 -5.9854734E-4	 0.08738792
13026	 -0.023343347	 -0.0029927369	 0.08559228
13036	 -0.02513899	 -5.9854734E-4	 0.091577746
13046	 -0.029328821	 0.0053869262	 0.101753056
13056	 -0.034715746	 0.017357873	 0.12090657
13066	 -0.033518653	 0.017357873	 0.12689205
13076	 -0.0341172	 0.0071825683	 0.13407461
13086	 -0.03830703	 -5.9854734E-4	 0.14544702
13096	 -0.042496864	 -0.0227448	 0.20171046
13106	 -0.06105183	 -0.051475074	 0.30286497
13116	 -0.07900825	 -0.08858501	 0.34536183
13126	 -0.08559228	 -0.10414724	 0.34416473
13136	 -0.09337339	 -0.14365137	 0.30047077
13146	 -0.082599536	 -0.21308286	 0.26994488
13156	 -0.09576758	 -0.27233905	 0.27772596
13166	 -0.11970948	 -0.3070548	 0.36212116
13176	 -0.14963683	 -0.3525444	 0.46926114
13186	 -0.18016276	 -0.40581512	 0.5470723
13196	 -0.2059003	 -0.47943643	 0.58478075
13206	 -0.19392934	 -0.4890132	 0.562036
13216	 -0.1568194	 -0.48602048	 0.45070615
13227	 -0.06763585	 -0.44711488	 0.25857246
13237	 0.023343347	 -0.29867515	 0.10414724
13247	 0.11432255	 -0.14125718	 -0.058059096
13257	 0.18255694	 -0.064044565	 -0.05985474
13267	 0.10474579	 -0.11073127	 0.23103929
13277	 -0.03890558	 -0.19213371	 0.47225386
13287	 -0.17477584	 -0.16100924	 0.47225386
13297	 -0.18734533	 -0.0017956421	 0.12988478
13307	 -0.09636613	 0.2376233	 -0.3561357
13317	 0.024540443	 0.5889706	 -0.8134259
13327	 0.13227896	 0.9361281	 -1.1522037
13337	 0.18674678	 1.1845253	 -1.2371974
13347	 0.17776857	 1.2000874	 -1.0905533
13357	 0.12988478	 0.8122288	 -0.75117695
13367	 0.047285244	 0.46806404	 -0.39384416
13377	 0.0041898317	 0.30765334	 -0.20410465
13387	 0.023343347	 0.26575503	 -0.17896566
13398	 0.034715746	 0.2489957	 -0.17776857
13408	 0.026934631	 0.17657147	 -0.09636613
13421	 0.0011970947	 -5.9854734E-4	 0.028131727
13431	 0.0113724	 -0.032920104	 -0.014365137
13441	 0.020949159	 -0.02992737	 -0.046686694
13451	 0.0029927369	 -0.04070122	 0.029328821
13461	 -0.024540443	 -0.08798646	 0.15502377
13471	 -0.0454896	 -0.11970948	 0.24720006
13481	 -0.055664904	 -0.11911093	 0.2489957
13491	 -0.04369396	 -0.108337075	 0.23463057
13501	 -0.032321557	 -0.083796635	 0.17298019
13511	 -0.014963685	 -0.07481842	 0.09696467
13521	 -0.0053869262	 -0.07481842	 0.05506636
13531	 -0.007781116	 -0.089782104	 0.0682344
13541	 -0.020949159	 -0.14365137	 0.18255694
13551	 -0.044292506	 -0.16639617	 0.3309967
13561	 -0.050876528	 -0.15861505	 0.40521657
13571	 -0.04788379	 -0.12449785	 0.3902529
13581	 -0.04369396	 -0.101154506	 0.3926471
13591	 -0.037109938	 -0.12210366	 0.36930373
13601	 -0.032321557	 -0.1238993	 0.31244174
13611	 -0.029328821	 -0.09457049	 0.26874778
13621	 -0.007781116	 -0.07661406	 0.18674678
13631	 -5.9854734E-4	 -0.04369396	 0.14843975
13641	 -0.01376659	 -0.03830703	 0.18674678
13651	 -0.018554969	 -0.05267217	 0.21308286
13661	 -0.0227448	 -0.05985474	 0.24360877
13671	 -0.035314295	 -0.058657642	 0.29388675
13681	 -0.04309541	 -0.049080886	 0.3196243
13691	 -0.06165038	 -0.016160779	 0.3944427
13701	 -0.07541697	 -0.009576757	 0.42915845
13711	 -0.07182568	 -0.023941895	 0.36990228
13721	 -0.082000986	 -0.0227448	 0.36750808
13731	 -0.11192836	 -0.028730273	 0.4674655
13741	 -0.14065863	 -0.0454896	 0.5518607
13751	 -0.1466441	 -0.06584021	 0.52133477
13761	 -0.14006008	 -0.083796635	 0.39743546
13771	 -0.11013272	 -0.12030802	 0.22445527
13782	 -0.08559228	 -0.15442522	 0.07481842
13792	 -0.0682344	 -0.2047032	 -0.0065840213
13802	 -0.07122713	 -0.2705434	 0.0227448
13812	 -0.113724	 -0.341172	 0.11851238
13822	 -0.20410465	 -0.4536989	 0.2968795
13832	 -0.316033	 -0.59196335	 0.52372897
13842	 -0.3639168	 -0.68952656	 0.76733774
13852	 -0.35673425	 -0.7062859	 0.8804632
13862	 -0.2160756	 -0.5105609	 0.8319808
13872	 0.10594288	 -0.09816177	 0.51654637
13882	 0.6763585	 0.2603681	 -0.32261702
13892	 1.2707161	 0.6111169	 -1.0055596
13902	 1.7399772	 0.9888002	 -1.3293737
13912	 2.1823037	 1.2108613	 -1.4383093
13922	 2.578542	 1.1749485	 -1.2737088
13932	 2.894575	 0.8702879	 -0.7529726
13942	 3.1112492	 0.3902529	 0.04010267
13952	 3.1968415	 -0.12928623	 0.92415714
13962	 3.1932502	 -0.613511	 1.6196692
13972	 3.1417751	 -1.022319	 1.9764034
13982	 3.0328395	 -1.320994	 2.0063307
13992	 2.8700347	 -1.5137264	 1.787861
14002	 2.6665285	 -1.6280489	 1.4652439
14012	 2.4307008	 -1.6717428	 1.1396341
14022	 2.173924	 -1.6358299	 0.871485
14032	 1.9117603	 -1.5107336	 0.6745629
14042	 1.6549835	 -1.2940594	 0.5494665
14052	 1.4089805	 -0.9959828	 0.4764437
14062	 1.1737514	 -0.65002245	 0.44053087
14072	 0.95707726	 -0.3321938	 0.3968369
14082	 0.74519145	 -0.08858501	 0.35553715
14092	 0.52492607	 0.05925619	 0.3286025
14102	 0.28790128	 0.10594288	 0.309449
14112	 0.03830703	 0.05506636	 0.2783245
14123	 -0.22086398	 -0.06883295	 0.22325817
14133	 -0.48602048	 -0.22984219	 0.14305282
14143	 -0.7469871	 -0.3890558	 0.049679432
14153	 -0.9971799	 -0.52013767	 -0.06165038
14163	 -1.2360003	 -0.60812414	 -0.19811918
14173	 -1.4550687	 -0.64762825	 -0.35912842
14183	 -1.6645602	 -0.63505876	 -0.53749555
14193	 -1.864475	 -0.5775982	 -0.69970185
14203	 -2.065587	 -0.47165534	 -0.8355721
14213	 -2.267896	 -0.32022285	 -0.93193823
14223	 -2.45165	 -0.13168041	 -0.998377
14233	 -2.6084695	 0.09816177	 -1.0570346
14243	 -2.7395513	 0.35673425	 -1.118685
14253	 -2.4049633	 0.27772596	 -2.2182167
14263	 -2.8107784	 0.7763159	 -2.3367288
14273	 -2.9442544	 1.1534008	 -2.9191155
14283	 -3.177688	 1.6328372	 -3.4015448
14294	 -3.4272823	 1.9458776	 -3.5924814
14304	 -3.7205703	 2.1685371	 -3.3081713
14314	 -3.7265558	 2.3337362	 -2.1817052
14326	 -2.3899996	 1.5891433	 0.81941134
14337	 -1.8782417	 1.1043199	 0.8224041
14347	 -1.4754193	 0.511758	 0.59435755
14357	 -1.4233457	 -0.14365137	 0.64882535
14367	 -1.5867491	 -0.73262197	 1.3473301
14377	 -1.4742222	 -0.60692704	 2.0991056
14387	 -1.1761456	 -0.054467812	 1.926724
14397	 -0.8110317	 0.28730273	 1.2940594
14407	 -0.58478075	 0.2765289	 0.9989756
14417	 -0.50098413	 0.14065863	 1.0678085
14427	 -0.46028292	 0.108935624	 1.1857224
14437	 -0.3956398	 0.20051336	 1.2467742
14447	 -0.38845724	 -0.71167284	 2.2218077
14457	 -0.5404883	 -0.26216376	 2.3666563
14467	 -0.28969693	 -0.2537841	 1.637027
14477	 -0.29388675	 -0.15622087	 1.452076
14487	 -0.195725	 -0.15502377	 1.112101
14497	 -0.1238993	 -0.14305282	 0.8643024
14507	 -0.082599536	 -0.1023516	 0.69311786
14517	 -0.044891052	 -0.08858501	 0.5560505
14527	 -0.032920104	 -0.07661406	 0.4890132
14537	 -0.030525915	 -0.07541697	 0.44053087
14547	 -0.02513899	 -0.07661406	 0.3878587
14557	 -5.9854734E-4	 -0.08738792	 0.31244174
14567	 0.00897821	 -0.13706735	 0.23822185
14577	 0.046088148	 -0.12150512	 0.15861505
14587	 0.06883295	 -0.13108188	 0.10953417
14597	 0.07721261	 -0.13706735	 0.08020534
14607	 0.05925619	 -0.14724265	 0.11611819
14617	 0.05985474	 -0.12868768	 0.1274906
14627	 0.044891052	 -0.099957414	 0.14125718
14637	 0.0341172	 -0.15741795	 0.15203103
14647	 0.029328821	 -0.09516903	 0.18076131
14657	 0.028131727	 -0.051475074	 0.16998746
14667	 0.04070122	 -0.016160779	 0.16639617
14678	 0.04369396	 -0.0065840213	 0.15143248
14688	 0.04788379	 0.0059854737	 0.14544702
14698	 0.05925619	 0.0107738525	 0.13168041
14708	 0.06763585	 0.0011970947	 0.10953417
14718	 0.0682344	 -0.0065840213	 0.09756322
14728	 0.06763585	 -0.018554969	 0.09397194
14738	 0.06584021	 -0.031124463	 0.083198085
14748	 0.06643876	 -0.037708484	 0.06703731
14758	 0.07003004	 -0.036511388	 0.055664904
14768	 0.07182568	 -0.029328821	 0.037708484
14778	 0.07541697	 -0.030525915	 0.019752063
14788	 0.082599536	 -0.035314295	 -0.0035912842
14798	 0.08738792	 -0.037708484	 -0.019752063
14808	 0.10414724	 -0.036511388	 -0.035314295
14818	 0.107738525	 -0.02992737	 -0.028131727
14828	 0.10414724	 -0.026934631	 -0.017357873
14838	 0.10474579	 -0.029328821	 -0.016160779
14848	 0.11132981	 -0.05027798	 -0.016759327
14858	 0.108935624	 -0.0682344	 -0.0017956421
14868	 0.06584021	 -0.064643115	 0.06643876
14878	 0.064044565	 -0.048482336	 0.083796635
14888	 0.108337075	 -0.065241665	 0.050876528
14898	 0.12449785	 -0.082599536	 0.0454896
14908	 0.12569495	 -0.07601552	 0.08439518
14918	 0.11073127	 -0.06584021	 0.0909792
14928	 0.08918356	 -0.058059096	 0.10474579
14938	 0.08619082	 -0.050876528	 0.12928623
14948	 0.07781116	 -0.051475074	 0.14245427
14958	 0.08140244	 -0.039504126	 0.14006008
14968	 0.13048333	 -0.030525915	 0.099957414
14978	 0.20111191	 -0.016160779	 0.04070122
14988	 0.3423691	 -0.032920104	 -0.0784097
14998	 0.58178806	 -0.04369396	 -0.22146253
15008	 0.97204095	 -0.06943149	 -0.40880784
15019	 1.3802502	 -0.06584021	 -0.51774347
15029	 1.8908111	 -0.17537437	 -0.5590432
15039	 1.9380964	 -0.25079134	 -0.20230901
15049	 1.88303	 -0.01795642	 0.30166787
15059	 2.110478	 0.01376659	 0.8014549
15069	 2.6377983	 0.09696467	 1.1025243
15079	 2.9849558	 0.13227896	 1.5083394
15089	 3.6607158	 0.116716735	 2.6366012
15099	 4.615399	 -0.037708484	 3.7235632
15109	 2.6611416	 0.739206	 4.7883787
15119	 2.191282	 2.16315	 5.5006504
15129	 3.461998	 2.1888878	 5.8765383
15139	 4.6561	 1.8776431	 6.0561023
15149	 5.782566	 1.4897844	 5.4713216
15159	 6.482867	 1.0468594	 4.335877
15169	 6.724081	 0.80444765	 3.317748
15179	 6.6546497	 0.7607537	 2.635404
15190	 6.4577274	 0.63865006	 2.3612695
15200	 6.2063375	 0.46267712	 2.3923938
15210	 5.7993255	 0.2807187	 2.578542
15220	 5.2163405	 0.10953417	 2.8239465
15233	 3.8025715	 -0.3286025	 3.222579
15243	 3.019073	 -0.5542549	 3.1896589
15253	 2.2182167	 -0.7739217	 2.9143271
15263	 1.4640468	 -0.9965814	 2.4097517
15273	 0.8098346	 -1.2186425	 1.630443
15283	 0.2741347	 -1.3640895	 0.6099198
15293	 -0.17717002	 -1.3772575	 -0.32201847
15303	 -0.5578461	 -1.2569494	 -0.74758565
15313	 -0.8936312	 -1.0899547	 -0.51774347
15323	 -1.2168468	 -0.9714424	 0.03830703
15333	 -1.5412595	 -0.8373678	 0.5446781
15343	 -1.9171473	 -0.7553668	 0.89662397
15353	 -2.2696917	 -0.69072366	 1.2599422
15363	 -2.6120608	 -0.6141096	 1.7381816
15373	 -2.9610138	 -0.50457543	 2.308597
15383	 -3.3135583	 -0.3136388	 2.807187
15393	 -3.7115922	 -0.051475074	 3.3111641
15403	 -4.144342	 0.22565235	 3.8013744
15413	 -4.5669165	 0.47823936	 4.1772623
15423	 -4.9900894	 0.71705973	 4.4729443
15433	 -5.4491754	 1.004961	 4.68483
15443	 -5.026601	 0.8996167	 2.5857246
15453	 -6.354179	 1.6507937	 3.2088125
15463	 -6.9467406	 1.9207385	 1.8118029
15473	 -7.961877	 2.091923	 1.856694
15483	 -8.89621	 1.6041069	 1.4796091
15493	 -9.714424	 0.90021527	 0.87627333
15503	 -10.356665	 -0.11013272	 -0.2603681
15513	 -10.813955	 -1.0761882	 -1.9805932
15523	 -11.118017	 -1.6753341	 -4.2957745
15533	 -11.221566	 -1.8016276	 -6.67919
15543	 -10.922293	 -1.6100924	 -8.1163025
15553	 -10.537426	 -1.1581892	 -8.127076
15563	 -10.484755	 -0.13706735	 -6.2913313
15574	 -9.484582	 1.13724	 -3.4003477
15584	 -7.1771817	 1.6723413	 -1.6130852
15594	 -5.856786	 1.7740943	 -0.505174
15604	 -5.292356	 2.190085	 0.9301426
15614	 -4.6872244	 2.1517777	 1.9871773
15624	 -3.7840164	 1.4616526	 2.6168492
15634	 -2.874823	 0.63266456	 2.3014147
15644	 -2.2152238	 0.117315285	 2.0236886
15654	 -1.7405758	 0.10474579	 2.148785
15664	 -1.358104	 0.33279234	 2.2816625
15674	 -1.0330927	 0.37229645	 2.3905983
15684	 -0.7763159	 0.22325817	 2.4283066
15694	 -0.5644302	 -0.44711488	 2.856268
15704	 -0.82300264	 0.08858501	 2.9107358
15714	 -0.3333909	 0.12270221	 2.193676
15724	 -0.29987222	 0.12270221	 1.9129574
15734	 -0.13168041	 0.051475074	 1.5173175
15744	 0.0011970947	 0.0113724	 1.1761456
15754	 0.09576758	 -0.0035912842	 0.93552953
15764	 0.20230901	 -0.06165038	 0.70927864
15774	 0.27892306	 -0.1023516	 0.52911586
15784	 0.33698216	 -0.12808913	 0.39145
15794	 0.37109938	 -0.1592136	 0.29029548
15804	 0.3866616	 -0.18794388	 0.24480587
15814	 0.4141948	 -0.20829448	 0.19632354
15824	 0.4207788	 -0.19692208	 0.16759327
15834	 0.40880784	 -0.14245427	 0.17417729
15844	 0.3926471	 -0.08738792	 0.19392934
15854	 0.38726014	 -0.0682344	 0.21308286
15864	 0.36930373	 -0.036511388	 0.2148785
15874	 0.36571243	 -0.023343347	 0.21667415
15884	 0.3561357	 -0.0071825683	 0.22325817
15894	 0.3525444	 -0.0119709475	 0.21009013
15904	 0.35912842	 -0.017357873	 0.18734533
15915	 0.36631098	 -0.030525915	 0.16400197
15925	 0.37469065	 -0.046686694	 0.14724265
15935	 0.37349355	 -0.037708484	 0.13587025
15945	 0.37229645	 -0.04070122	 0.1250964
15955	 0.3752892	 -0.03830703	 0.117913835
15965	 0.37229645	 -0.03890558	 0.11432255
15975	 0.36750808	 -0.03890558	 0.10594288
15985	 0.37708485	 -0.05267217	 0.07601552
15995	 0.38067612	 -0.058059096	 0.058657642
16005	 0.37469065	 -0.058657642	 0.046088148
16015	 0.3764863	 -0.0341172	 0.041299768
16025	 0.37588775	 -0.024540443	 0.03830703
16035	 0.3902529	 -0.023343347	 0.0227448
16045	 0.39743546	 -0.035314295	 0.012569495
16055	 0.4094064	 -0.062248927	 0.008379663
16065	 0.40282238	 -0.07481842	 0.035314295
16075	 0.35912842	 -0.06883295	 0.082599536
16086	 0.40701222	 -0.08619082	 0.05267217
16096	 0.42018026	 -0.12090657	 0.047285244
16106	 0.4183846	 -0.12808913	 0.082599536
16116	 0.4082093	 -0.11432255	 0.10295015
16126	 0.38187322	 -0.11013272	 0.12090657
16136	 0.3752892	 -0.10654143	 0.1352717
16146	 0.38606304	 -0.113724	 0.13706735
16156	 0.4183846	 -0.098760314	 0.10534434
16166	 0.48302773	 -0.08020534	 0.07003004
16176	 0.60333574	 -0.05207362	 -0.00897821
16186	 0.86011255	 -0.07242423	 -0.170586
16199	 1.6729399	 -0.07781116	 -0.5219333
16209	 2.146391	 -0.06763585	 -0.6051314
16219	 2.3756344	 0.092774846	 -0.21188577
16229	 2.477986	 0.082599536	 0.2968795
16239	 2.5174901	 -0.14843975	 0.91936874
16249	 3.0567813	 -0.23582767	 1.3449359
16259	 3.3081713	 -0.13886298	 1.6968818
16269	 3.759476	 -0.29867515	 2.9520357
16279	 4.234124	 -0.48003498	 4.051567
16289	 1.8794388	 0.95707726	 5.0277977
16299	 2.4001749	 1.5759752	 5.626345
16309	 3.8648202	 1.484996	 5.9417796
16319	 4.9649506	 1.611888	 5.8729467
16329	 6.0112114	 1.6041069	 4.7979555
16339	 6.4463553	 1.7603278	 3.8372872
16349	 6.5648675	 2.0123162	 2.9777732
16359	 6.6337004	 2.1314273	 2.16315
16369	 6.585817	 2.2128296	 1.6041069
16379	 6.3469963	 2.262509	 1.4227471
16389	 5.951955	 2.20445	 1.5394639
16399	 5.452168	 2.0248857	 1.7621235
16409	 4.869183	 1.768109	 1.938695
16419	 4.2269416	 1.5328798	 1.927921
16429	 3.5763204	 1.3425417	 1.725612
16439	 2.952634	 1.2036787	 1.4987626
16449	 2.3744373	 1.0767868	 1.4203529
16459	 1.8261681	 0.97084385	 1.4796091
16470	 1.2928623	 0.89542687	 1.597523
16480	 0.7948709	 0.8283896	 1.7022687
16490	 0.34416473	 0.74638855	 1.7208236
16500	 -0.05267217	 0.6458326	 1.6657573
16510	 -0.4094064	 0.53390425	 1.566997
16520	 -0.73860747	 0.43155265	 1.5047481
16530	 -1.0474579	 0.32082137	 1.4963684
16540	 -1.3533156	 0.15562232	 1.5376682
16550	 -1.6274503	 -0.15023538	 1.5310842
16560	 -1.8477157	 -0.5728098	 1.4407035
16570	 -2.0625942	 -0.97623074	 1.4275354
16580	 -2.3229623	 -1.42155	 1.719028
16590	 -2.6575503	 -1.9434834	 2.4576354
16600	 -3.0974827	 -2.41454	 3.1579359
16610	 -3.5775175	 -2.7263832	 3.6852562
16620	 -4.053363	 -2.8203552	 4.088677
16630	 -4.499879	 -2.7844424	 4.219759
16640	 -4.8775625	 -2.713215	 3.8139439
16650	 -5.252253	 -2.56298	 3.65892
16660	 -5.4437885	 -1.6148808	 2.3349333
16670	 -6.28774	 -1.2437814	 3.1178331
16680	 -6.706723	 -0.54407954	 2.7844424
16690	 -7.3328037	 -0.13886298	 2.5438263
16700	 -7.9283586	 0.042496864	 2.065587
16710	 -8.633448	 0.42317298	 0.7763159
16720	 -9.3924055	 0.5458752	 -0.6182994
16730	 -10.078341	 0.5099624	 -2.373839
16740	 -10.55239	 0.22385672	 -4.3017597
16750	 -10.730159	 -0.24241169	 -6.22609
16760	 -10.56077	 -0.7936738	 -7.5776095
16770	 -10.315366	 -1.3616953	 -7.7416115
16780	 -10.125028	 -1.1444225	 -6.8892803
16790	 -9.299032	 -0.85113436	 -4.4364333
16800	 -7.4950104	 -1.8339491	 -1.9602426
16811	 -6.4343843	 -2.1206534	 -0.3932456
16821	 -5.8310485	 -1.0402753	 1.0079538
16831	 -4.6261725	 0.28670418	 1.9620383
16841	 -3.4386547	 0.2741347	 1.8303579
16851	 -2.570761	 -0.65361375	 1.3790531
16861	 -2.0691783	 -1.3335636	 1.5245001
16871	 -1.5616101	 -0.7356147	 1.8740518
16881	 -1.125269	 0.08858501	 2.0560102
16891	 -0.7876883	 0.117913835	 2.178114
16901	 -0.55126214	 -0.2705434	 2.136814
16911	 -0.33817926	 -0.34296763	 1.9626368
16921	 0.0053869262	 -0.9995741	 2.305006
16931	 -0.18255694	 -0.91936874	 2.7736685
16941	 0.04010267	 -0.834375	 2.1044927
16951	 0.046088148	 -0.543481	 2.330145
16961	 0.13467316	 -0.26874778	 1.927921
16971	 0.2968795	 -0.28490853	 1.4616526
16982	 0.3321938	 -0.14724265	 1.2222338
16992	 0.39982966	 -0.08020534	 0.9792235
17002	 0.45190325	 -0.054467812	 0.7469871
17012	 0.48602048	 -0.03830703	 0.60213864
17022	 0.5063711	 -0.02992737	 0.4752466
17032	 0.518342	 -0.007781116	 0.39204854
17042	 0.5273202	 -0.01795642	 0.30885044
17052	 0.5410868	 -0.014963685	 0.2489957
17065	 0.5674229	 -0.00897821	 0.1376659
17075	 0.57101417	 -0.014963685	 0.107738525
17085	 0.5680215	 -0.0107738525	 0.09696467
17095	 0.56981707	 0.0035912842	 0.07900825
17105	 0.58059096	 0.012569495	 0.041299768
17115	 0.5608389	 0.041898318	 0.0784097
17125	 0.54647374	 0.03890558	 0.09337339
17135	 0.53749555	 0.025737537	 0.107738525
17145	 0.53151006	 0.02753318	 0.11252691
17155	 0.53270715	 0.02992737	 0.099358864
17165	 0.543481	 0.023941895	 0.07721261
17175	 0.5638316	 0.028131727	 0.037708484
17185	 0.5775982	 0.029328821	 0.01795642
17195	 0.5740069	 0.026336085	 0.025737537
17205	 0.5662258	 0.020949159	 0.046088148
17215	 0.5422839	 0.021547705	 0.06344602
17225	 0.53390425	 0.0131680425	 0.08858501
17235	 0.49619576	 -0.015562232	 0.11851238
17245	 0.5099624	 -0.0113724	 0.11551964
17255	 0.5243275	 -0.014365137	 0.09397194
17265	 0.54168534	 -0.0053869262	 0.08858501
17275	 0.57460546	 0.0011970947	 0.074219875
17285	 0.6051314	 0.014365137	 0.04010267
17295	 0.6177009	 -0.035314295	 0.021547705
17305	 0.65900064	 -0.031124463	 -0.0011970947
17315	 0.70568734	 -0.041299768	 -0.0113724
17325	 0.7356147	 -0.0341172	 -0.03591284
17335	 0.7751188	 -0.026934631	 -0.06943149
17345	 0.871485	 -0.017357873	 -0.15502377
17355	 0.8870472	 0.019752063	 -0.170586
17366	 0.93074113	 0.009576757	 -0.18495114
17376	 1.0821736	 0.06584021	 -0.30645624
17386	 1.6166764	 0.09457049	 -0.8164186
17396	 1.9315124	 0.1580165	 -1.1007286
17406	 2.3457072	 0.0682344	 -1.4383093
17416	 2.7515223	 -0.21846978	 -1.7435685
17426	 3.16452	 -1.1348459	 -1.7938465
17436	 3.02027	 -3.0777307	 -0.4686626
17446	 3.0160801	 -4.9595633	 1.4293311
17456	 2.4283066	 -5.374955	 2.920911
17466	 1.4712294	 -3.222579	 3.9761503
17476	 3.0035107	 0.044891052	 4.639341
17486	 4.9015045	 2.4720006	 2.9149256
17496	 5.8561873	 4.2838035	 2.9274952
17506	 6.204542	 5.3737583	 3.7977831
17516	 6.0004373	 4.1688824	 4.38017
17526	 5.7227116	 1.9416877	 4.051567
17536	 5.3815393	 -0.34177056	 3.033438
17546	 5.0469513	 -2.2696917	 2.2643046
17556	 4.672859	 -4.029421	 1.8124014
17566	 4.2981687	 -5.7915444	 1.4329224
17576	 3.8737986	 -7.048494	 1.346133
17586	 3.3895738	 -7.78351	 1.3892285
17596	 2.8838012	 -7.797875	 1.2479713
17606	 2.4277081	 -7.25619	 0.96844965
17616	 2.0332654	 -6.443961	 0.66498613
17626	 1.6926919	 -5.592827	 0.32022285
17636	 1.4257399	 -4.8242917	 0.03890558
17646	 1.1743499	 -4.23592	 0.07122713
17656	 0.86968935	 -3.8660173	 0.47045824
17666	 0.47584516	 -3.7271545	 1.0857649
17676	 0.026934631	 -3.8211265	 1.5861505
17686	 -0.46926114	 -4.077305	 1.9536586
17696	 -0.9947857	 -4.382564	 2.2828596
17707	 -1.535274	 -4.5884643	 2.6743097
17717	 -2.0302727	 -4.6459246	 2.9705906
17727	 -2.4983368	 -4.4968863	 3.2046225
17737	 -2.9735832	 -4.192226	 3.3638363
17747	 -3.4242895	 -3.7558846	 3.5272396
17757	 -3.8959448	 -3.1938488	 3.923478
17767	 -4.358622	 -2.548016	 4.18205
17777	 -4.7428894	 -2.0410466	 3.8564408
17787	 -5.090047	 -1.5747781	 3.3620405
17797	 -5.416854	 -1.1947006	 2.7605004
17807	 -5.7382736	 -0.8271925	 2.4708035
17817	 -6.0686717	 -0.58059096	 2.4283066
17827	 -6.4289975	 -0.5422839	 2.16315
17837	 -6.787527	 -0.65660644	 1.4891858
17847	 -7.2089043	 -0.777513	 1.1617805
17857	 -7.703903	 -0.7368118	 1.1456196
17867	 -8.185135	 -0.58597785	 0.4764437
17878	 -8.598731	 -0.30885044	 -0.96246415
17888	 -8.9536705	 0.04369396	 -2.230786
17898	 -9.212242	 0.40641367	 -2.7024415
17908	 -9.269703	 0.7739217	 -2.6180463
17918	 -9.045846	 1.1587877	 -2.495344
17928	 -6.9988146	 2.6246302	 -5.012834
17938	 -6.461319	 3.139381	 -3.9222808
17948	 -4.0084715	 2.7628946	 -3.0196714
17958	 -1.6944876	 2.660543	 -5.143916
17968	 -1.2677233	 1.6980789	 -5.3737583
17978	 -2.2972248	 0.84993726	 -3.6026566
17988	 -2.7670846	 -1.508938	 -1.8722562
17998	 -3.698424	 -3.4039388	 -0.09576758
18008	 -3.6427593	 -2.1284344	 1.2210367
18018	 -3.0310438	 -0.15143248	 2.199063
18028	 -2.330145	 -0.32201847	 2.6030824
18041	 -1.3191984	 -0.92774844	 2.339123
18052	 -1.0606259	 0.0029927369	 2.6880763
18062	 -0.8361707	 0.30525917	 2.8951735
18072	 -0.5530578	 0.12090657	 2.7700772
18082	 -0.32201847	 0.14245427	 2.4600296
18092	 -0.14365137	 0.30645624	 2.2014573
18102	 0.0035912842	 0.429757	 1.9231327
18112	 0.1580165	 0.4082093	 1.553829
18122	 0.40222383	 0.5608389	 1.4574628
18132	 0.2172727	 0.7793087	 1.9811918
18142	 0.3716979	 0.86370385	 1.3317679
18152	 0.4525018	 0.63745296	 1.1109039
18162	 0.4536989	 0.60812414	 0.9199673
18172	 0.5195391	 0.48003498	 0.6949135
18182	 0.5560505	 0.42197588	 0.5410868
18192	 0.5841822	 0.36511388	 0.4309541
18202	 0.6147081	 0.34596038	 0.31124464
18212	 0.6171023	 0.33039814	 0.27473325
18222	 0.5865764	 0.33698216	 0.3136388
18232	 0.57101417	 0.3363836	 0.30346352
18242	 0.5662258	 0.34057346	 0.27892306
18252	 0.55485344	 0.3375807	 0.2729376
18262	 0.55365634	 0.32321557	 0.25976956
18272	 0.54647374	 0.31782866	 0.24301024
18282	 0.55126214	 0.3082519	 0.21547705
18292	 0.5404883	 0.3130403	 0.22146253
18302	 0.5392912	 0.31663156	 0.19093661
18312	 0.53869265	 0.31543446	 0.17776857
18322	 0.53151006	 0.3172301	 0.16100924
18332	 0.52791876	 0.32201847	 0.15023538
18342	 0.5333057	 0.31423736	 0.13287751
18352	 0.5333057	 0.3184272	 0.11192836
18362	 0.52911586	 0.32441267	 0.101154506
18372	 0.52372897	 0.32560977	 0.08499373
18382	 0.52791876	 0.32321557	 0.064643115
18392	 0.5243275	 0.3196243	 0.05027798
18402	 0.5297144	 0.3148359	 0.044292506
18412	 0.52492607	 0.3184272	 0.04788379
18422	 0.5003856	 0.32201847	 0.07661406
18432	 0.50457543	 0.30166787	 0.058657642
18442	 0.50218123	 0.2932882	 0.055664904
18452	 0.50218123	 0.3070548	 0.053869262
18462	 0.52013767	 0.3196243	 0.030525915
18472	 0.51654637	 0.2489957	 0.0053869262
18482	 0.55365634	 0.24181314	 0.0071825683
18492	 0.53869265	 0.23163784	 0.030525915
18502	 0.53151006	 0.23463057	 0.05985474
18512	 0.50577253	 0.21427996	 0.099358864
18522	 0.4991885	 0.20290756	 0.1250964
18532	 0.49619576	 0.21009013	 0.13048333
18542	 0.50577253	 0.2059003	 0.1274906
18552	 0.53869265	 0.19991483	 0.10713998
18562	 0.6063285	 0.16220634	 0.057460546
18572	 0.6667818	 0.12090657	 0.017357873
18582	 0.7846956	 0.07182568	 -0.054467812
18592	 0.966654	 -0.0053869262	 -0.12928623
18603	 1.2024816	 -0.11013272	 -0.23463057
18613	 1.6178735	 -0.21427996	 -0.34835458
18623	 2.23737	 -0.45968437	 -0.45010763
18633	 2.1966689	 -0.7038917	 0.04010267
18643	 2.4295037	 -1.2180439	 0.52672166
18653	 2.5498118	 -1.5891433	 0.9989756
18663	 2.952634	 -0.96605545	 1.3491257
18673	 3.2764482	 -0.4183846	 1.6747355
18683	 3.657723	 -0.36152261	 2.053616
18693	 4.009669	 -0.7003004	 2.4522486
18703	 3.2513094	 -0.2944853	 3.6996212
18713	 1.0713998	 1.9123589	 5.1840186
18723	 2.0362582	 1.3353592	 5.9699116
18733	 3.7349355	 0.22565235	 6.3847046
18743	 4.6740565	 -0.4513047	 6.249433
18753	 5.258837	 -1.0833707	 5.0637107
18763	 5.4120655	 -1.3006434	 4.047377
18774	 5.437803	 -1.2312119	 3.1669142
18784	 5.4461827	 -1.0127422	 2.4474602
18794	 5.387525	 -0.6165038	 1.9787976
18804	 5.270808	 -0.08559228	 1.824971
18814	 5.0774775	 0.50936383	 1.9895715
18824	 4.8075323	 1.0755897	 2.3163784
18834	 4.434039	 1.5891433	 2.6497693
18844	 3.9893181	 2.0063307	 2.8550708
18854	 3.4272823	 2.2224064	 2.919714
18864	 2.8131726	 2.240363	 2.9029548
18874	 2.1374125	 2.1092808	 2.7970119
18884	 1.478412	 1.8537012	 2.5737536
18894	 0.78948396	 1.5705884	 2.3157797
18904	 0.15382667	 1.2318105	 1.8501099
18914	 -0.34955168	 0.79427236	 0.9385223
18924	 -0.75596535	 0.32501122	 -0.24839716
18934	 -1.1414298	 -0.08619082	 -1.1300575
18944	 -1.4873902	 -0.486619	 -1.2778987
18954	 -1.7860653	 -0.871485	 -0.76374644
18964	 -2.0344625	 -1.0947431	 0.032321557
18977	 -2.7329674	 -0.5614374	 2.103894
18987	 -3.2638788	 0.010175305	 2.8526769
18997	 -3.8139439	 0.5560505	 3.4135156
19007	 -4.3179207	 0.9888002	 3.8396814
19017	 -4.779401	 1.3419431	 4.169481
19027	 -5.2055664	 1.5963259	 4.4304476
19037	 -5.5269866	 1.7914523	 4.645326
19047	 -5.3803425	 2.1302302	 1.8351462
19057	 -7.0251503	 3.0849133	 2.3349333
19067	 -7.622501	 2.7048357	 1.4730251
19077	 -8.53768	 2.450453	 1.7621235
19087	 -9.382829	 1.9368993	 1.896198
19097	 -10.010106	 1.4287325	 0.7164612
19107	 -10.450637	 0.66139483	 -1.7549409
19117	 -10.724174	 0.38426742	 -4.876964
19127	 -10.860642	 0.5446781	 -7.420192
19137	 -10.855854	 0.8678937	 -9.319383
19147	 -10.704421	 1.4867916	 -9.641401
19158	 -9.450464	 -0.43693957	 -5.8879104
19168	 -7.0514865	 -2.6880763	 -3.0328395
19178	 -6.6905622	 -0.91278476	 -0.93313533
19188	 -5.277392	 1.6041069	 0.5913648
19198	 -4.1018453	 2.0602	 1.4442948
19208	 -3.265076	 0.95588017	 1.4855945
19218	 -2.5611842	 0.098760314	 1.5987201
19228	 -2.0212944	 0.19033806	 2.0691783
19238	 -1.6280489	 0.5991459	 2.393591
19248	 -1.1210792	 0.48961174	 2.3295465
19258	 -0.73501617	 0.051475074	 2.0512218
19268	 -0.486619	 -0.3956398	 2.8275378
19278	 -0.59555465	 0.21966688	 2.8317275
19288	 -0.18315549	 0.073621325	 2.2397642
19298	 -0.14724265	 0.082599536	 2.1056895
19308	 0.028131727	 0.024540443	 1.7669119
19318	 0.15083393	 0.044292506	 1.4185573
19328	 0.24600297	 0.05925619	 1.1348459
19338	 0.3387778	 0.05267217	 0.9259528
19348	 0.39085144	 0.06165038	 0.75237405
19358	 0.4321512	 0.064643115	 0.59854734
19368	 0.49739286	 0.035314295	 0.4740495
19378	 0.53151006	 0.0029927369	 0.36990228
19388	 0.5674229	 -0.02513899	 0.30765334
19398	 0.5596418	 -0.04788379	 0.2537841
19408	 0.5656273	 -0.07541697	 0.2059003
19418	 0.5728098	 -0.08499373	 0.16460052
19428	 0.57939386	 -0.07900825	 0.14125718
19438	 0.57580256	 -0.06584021	 0.1352717
19448	 0.5716127	 -0.05027798	 0.13587025
19458	 0.5626345	 -0.048482336	 0.14006008
19468	 0.5608389	 -0.05207362	 0.14604555
19478	 0.5668244	 -0.039504126	 0.1376659
19488	 0.5650287	 -0.04010267	 0.12988478
19499	 0.5680215	 -0.03890558	 0.12808913
19509	 0.5662258	 -0.04070122	 0.11551964
19519	 0.5632331	 -0.036511388	 0.11851238
19529	 0.55006504	 -0.028730273	 0.1274906
19539	 0.55126214	 -0.021547705	 0.1250964
19549	 0.5560505	 -0.016759327	 0.11252691
19559	 0.5650287	 -0.017357873	 0.1023516
19569	 0.5578461	 -0.008379663	 0.092176296
19579	 0.55485344	 -0.0011970947	 0.0796068
19589	 0.5554519	 0.0065840213	 0.0682344
19599	 0.556649	 0.0011970947	 0.049080886
19609	 0.55245924	 -0.0011970947	 0.036511388
19619	 0.5482694	 0.0	 0.037708484
19629	 0.5410868	 0.00897821	 0.05267217
19639	 0.53988975	 0.0065840213	 0.053270716
19649	 0.5530578	 -0.008379663	 0.039504126
19659	 0.5656273	 -0.029328821	 0.0341172
19670	 0.5740069	 0.0017956421	 0.030525915
19680	 0.5614374	 0.012569495	 0.05985474
19690	 0.54407954	 -0.05027798	 0.057460546
19700	 0.5572476	 -0.033518653	 0.050876528
19710	 0.5446781	 -0.053270716	 0.07781116
19720	 0.53869265	 -0.05027798	 0.1274906
19730	 0.50457543	 -0.03830703	 0.15262958
19740	 0.47345096	 -0.031124463	 0.16400197
19750	 0.4525018	 -0.023941895	 0.18554969
19760	 0.4967943	 -0.044292506	 0.17417729
19770	 0.543481	 -0.0454896	 0.1580165
19780	 0.6159052	 -0.03172301	 0.11192836
19790	 0.78589267	 -0.049080886	 0.0011970947
19800	 1.0630201	 -0.08499373	 -0.19153516
19810	 1.5957273	 -0.10713998	 -0.46028292
19820	 2.187092	 -0.091577746	 -0.6584021
19830	 2.7455368	 -0.12868768	 -0.7086801
19840	 2.7497265	 -0.08678937	 -0.06165038
19850	 2.8855968	 -0.08918356	 0.44771343
19860	 3.0675552	 -0.24181314	 1.1869195
19870	 3.48175	 -0.170586	 1.4167616
19880	 3.2016299	 -0.050876528	 1.8034232
19890	 3.521254	 -0.037708484	 2.2762756
19900	 4.2018027	 -0.2579739	 2.7000473
19910	 1.8920082	 1.4945728	 4.4579806
19920	 1.498164	 2.7114196	 5.532972
19930	 3.7415197	 1.6495966	 6.1021905
19940	 5.1409235	 1.3736662	 6.4248075
19953	 6.415829	 0.9121862	 5.097828
19963	 6.476881	 0.9457048	 3.9749532
19973	 6.482867	 0.95348597	 2.7898293
19983	 6.352383	 0.94630337	 1.8950009
19993	 6.1045847	 0.9552816	 1.4293311
20003	 5.717923	 0.9361281	 1.4616526
20013	 5.212749	 0.8313823	 1.9249283
20023	 4.5764933	 0.6913222	 2.6048782
20033	 3.8450682	 0.54767084	 3.163323
20043	 3.0717452	 0.36930373	 3.3979535
20054	 2.2553265	 0.14724265	 3.3632376
20064	 1.4305282	 -0.10474579	 3.1663156
20074	 0.64104426	 -0.33039814	 2.9669993
20084	 -0.099957414	 -0.4878161	 2.8167639
20094	 -0.77092904	 -0.5841822	 2.6264257
20104	 -1.3485272	 -0.64403695	 2.2702901
20114	 -1.7938465	 -0.7541697	 1.4999597
20124	 -2.136814	 -0.95228887	 0.44053087
20134	 -2.4456646	 -1.1653718	 -0.309449
20144	 -2.697653	 -1.2778987	 -0.35972697
20154	 -2.8634505	 -1.2216352	 0.098760314
20164	 -3.0124888	 -1.0977359	 0.8391634
20174	 -3.2381413	 -0.9540845	 1.864475
20184	 -3.627197	 -0.7793087	 2.696456
20194	 -4.1186047	 -0.38007757	 3.323135
20204	 -4.7015896	 0.16041069	 3.8013744
20214	 -5.2534504	 0.7565639	 4.176065
20224	 -5.7490473	 1.3395491	 4.4753385
20234	 -6.212323	 1.832752	 4.5363903
20244	 -6.721687	 2.2092383	 4.4280534
20254	 -6.8916745	 2.1547706	 3.0986798
20264	 -7.9912057	 2.590513	 3.1639214
20274	 -8.844734	 2.4851687	 2.3014147
20284	 -9.820367	 2.0572073	 1.6531879
20294	 -10.536229	 0.97862494	 0.38067612
20304	 -11.053973	 -0.2615652	 -1.921337
20314	 -11.380779	 -1.143824	 -5.012834
20324	 -11.510664	 -1.1761456	 -7.4680753
20334	 -11.486124	 -1.414966	 -9.330755
20344	 -11.328706	 -1.3197969	 -8.802836
20354	 -9.921521	 -0.45549455	 -5.186413
20364	 -8.285092	 0.6039343	 -2.5246727
20374	 -6.4882536	 1.6130852	 -1.8465186
20384	 -4.757853	 2.300816	 -0.7553668
20395	 -3.7475052	 1.8453215	 -0.06643876
20405	 -3.233353	 1.2701175	 0.91398185
20415	 -3.1046653	 0.76853484	 1.9680238
20425	 -2.6455793	 0.51295507	 2.747931
20435	 -2.0350611	 0.562036	 2.7533178
20445	 -1.5083394	 0.3716979	 2.6569517
20455	 -1.1366415	 0.04309541	 2.5563958
20465	 -0.81163025	 0.064643115	 2.4432704
20475	 -0.52911586	 0.19153516	 2.3588753
20485	 -0.37888047	 0.06643876	 2.3546853
20495	 -0.21308286	 -0.16699472	 2.3062031
20505	 0.060453285	 -1.0983344	 2.640791
20515	 -0.09696467	 -0.76853484	 3.0753365
20525	 0.06165038	 -0.16100924	 2.692266
20535	 0.22924364	 -0.10295015	 2.154172
20545	 0.2944853	 -0.08858501	 1.7603278
20555	 0.39743546	 -0.091577746	 1.3760604
20566	 0.5231304	 -0.046088148	 1.1198821
20576	 0.50936383	 -0.0071825683	 0.8505358
20586	 0.5799924	 -0.016759327	 0.6679789
20596	 0.60094154	 -0.053869262	 0.5470723
20606	 0.6236864	 -0.117315285	 0.45848727
20616	 0.6147081	 -0.13946153	 0.39384416
20626	 0.6230878	 -0.15083393	 0.34356618
20636	 0.63865006	 -0.12928623	 0.2831129
20646	 0.6434384	 -0.082599536	 0.2549812
20656	 0.62907326	 -0.046088148	 0.24480587
20666	 0.6200951	 -0.032321557	 0.23103929
20676	 0.6194965	 -0.032920104	 0.20410465
20686	 0.62787616	 -0.05027798	 0.17776857
20696	 0.6308689	 -0.064044565	 0.15622087
20706	 0.6177009	 -0.073621325	 0.1693889
20716	 0.5961532	 -0.074219875	 0.18495114
20726	 0.62787616	 -0.0784097	 0.19213371
20736	 0.5913648	 -0.05506636	 0.1568194
20746	 0.59794885	 -0.0454896	 0.13587025
20756	 0.5901677	 -0.030525915	 0.12030802
20766	 0.59974444	 -0.041299768	 0.10474579
20776	 0.6171023	 -0.041898318	 0.0796068
20786	 0.6272776	 -0.04788379	 0.05506636
20796	 0.62907326	 -0.048482336	 0.047285244
20806	 0.63505876	 -0.06284747	 0.03830703
20816	 0.6344602	 -0.113724	 0.00897821
20826	 0.64403695	 -0.12569495	 0.02753318
20836	 0.6099198	 -0.099957414	 0.09457049
20846	 0.5925619	 -0.03890558	 0.13048333
20858	 0.6153067	 -0.11073127	 0.12808913
20869	 0.60812414	 -0.13826445	 0.15382667
20879	 0.5991459	 -0.14065863	 0.17776857
20889	 0.5668244	 -0.1364688	 0.19811918
20899	 0.543481	 -0.108337075	 0.21009013
20909	 0.5380941	 -0.09636613	 0.20111191
20919	 0.5841822	 -0.10654143	 0.17717002
20929	 0.65481085	 -0.1250964	 0.13407461
20939	 0.81462294	 -0.09696467	 0.024540443
20950	 1.1420283	 -0.0796068	 -0.17118455
20960	 1.7609264	 -0.10594288	 -0.5446781
20970	 2.3277507	 -0.0011970947	 -0.7110743
20980	 2.975379	 -0.041299768	 -0.79786366
20990	 2.9574225	 0.06284747	 -0.099358864
21000	 2.8425014	 0.14185573	 0.73741037
21010	 3.3967564	 -0.28610563	 1.3509214
21020	 3.6900446	 -0.17896566	 1.6747355
21030	 3.4476328	 -0.07900825	 2.2894437
21040	 3.9893181	 -0.20530175	 2.7341645
21050	 2.9071445	 0.083198085	 4.3340816
21060	 1.3664837	 2.0625942	 5.447978
21070	 2.6078708	 1.9692209	 6.07346
21080	 4.1359625	 1.6094939	 6.408048
21090	 5.2887645	 1.6382241	 6.3176675
21100	 5.9447722	 1.5640043	 5.200778
21110	 6.209929	 1.540661	 4.024034
21120	 6.25482	 1.6154794	 2.9346778
21130	 6.282952	 1.5939317	 1.9039792
21140	 6.2344694	 1.5328798	 1.1067141
21150	 6.1075773	 1.4712294	 0.66259193
21160	 5.862173	 1.3874328	 0.69910336
21170	 5.5227966	 1.2563509	 1.1228749
21180	 5.112193	 1.0971373	 1.762722
21190	 4.5944495	 0.97204095	 2.4923513
21200	 3.9875226	 0.839762	 3.1441693
21210	 3.2764482	 0.688928	 3.701417
21220	 2.4839716	 0.48183063	 3.9875226
21230	 1.648998	 0.24720006	 3.827112
21240	 0.84874016	 -0.016160779	 3.3093684
21250	 0.12868768	 -0.2765289	 2.652762
21260	 -0.48542193	 -0.50696963	 2.0440392
21270	 -0.94750047	 -0.7272351	 1.3221911
21280	 -1.3156071	 -0.92296004	 0.40641367
21291	 -1.6663558	 -1.1575906	 -0.3627197
21301	 -1.9853816	 -1.2916652	 -0.5949561
21311	 -2.2714872	 -1.28149	 -0.19273226
21321	 -2.5348482	 -1.1713572	 0.42556718
21331	 -2.7622962	 -0.96485835	 1.0283043
21341	 -3.0926943	 -0.74579	 1.926724
21351	 -3.543999	 -0.48422483	 2.734763
21361	 -4.001888	 -0.046088148	 3.3410914
21371	 -4.6004353	 0.48302773	 3.80317
21381	 -5.125361	 0.9026094	 4.159904
21391	 -5.5850453	 1.1198821	 4.44182
21401	 -5.945371	 1.1522037	 4.3975277
21411	 -6.288937	 1.0594288	 4.1658897
21421	 -6.6875696	 0.891237	 3.909113
21431	 -7.188554	 0.682344	 3.5493858
21441	 -7.768546	 0.398034	 2.9047503
21451	 -8.428744	 0.032920104	 1.9656296
21462	 -9.207454	 -0.38726014	 1.1138966
21472	 -10.063376	 -0.8164186	 0.40641367
21482	 -10.690056	 -1.1174879	 -0.43933377
21492	 -11.131186	 -1.1073127	 -1.9392935
21502	 -11.399933	 -0.8888428	 -3.7259574
21512	 -11.103054	 -0.42796138	 -4.7638383
21522	 -10.6451645	 1.1198821	 -5.984277
21532	 -9.319981	 1.3233882	 -6.5714517
21542	 -7.0131793	 0.09816177	 -4.6950054
21552	 -3.7253587	 -1.8112043	 -7.167006
21562	 -3.4159098	 -1.326381	 -5.8543916
21572	 -4.6225815	 -0.5207362	 -3.0214672
21582	 -4.465762	 -1.5945302	 -1.2306134
21592	 -4.253876	 -3.3063757	 0.38486597
21602	 -4.05037	 -2.477986	 1.5759752
21612	 -3.492524	 -0.81701714	 2.4606283
21622	 -2.7628946	 -0.51295507	 2.8239465
21632	 -2.0308712	 -1.2330076	 2.3409188
21642	 -1.5071423	 -1.1671674	 2.0578058
21652	 -1.1671674	 -0.2364262	 2.4019706
21662	 -0.8768719	 0.32920104	 2.7868366
21672	 -0.58178806	 0.17537437	 2.8305304
21682	 -0.34895313	 -0.07541697	 2.601287
21692	 -0.14125718	 -0.13407461	 2.351094
21702	 0.17956421	 -0.8888428	 2.6264257
21712	 0.024540443	 -0.7433958	 3.08611
21722	 0.1819584	 -0.32082137	 2.5396364
21732	 0.3525444	 -0.20230901	 2.0572073
21742	 0.4171875	 -0.15083393	 1.6519908
21752	 0.5147507	 -0.18435259	 1.2731103
21762	 0.5608389	 -0.12449785	 1.0145378
21772	 0.6063285	 -0.11312545	 0.80205345
21782	 0.64283985	 -0.12988478	 0.62907326
21792	 0.6530152	 -0.14065863	 0.5243275
21805	 0.6775556	 -0.1933308	 0.3740921
21815	 0.657205	 -0.15143248	 0.37828195
21825	 0.6530152	 -0.09457049	 0.35852987
21835	 0.6607963	 -0.06165038	 0.3130403
21846	 0.6584021	 -0.037109938	 0.2765289
21856	 0.65361375	 -0.02992737	 0.24360877
21866	 0.65660644	 -0.026336085	 0.21787125
21876	 0.64104426	 -0.020949159	 0.22086398
21886	 0.6356573	 -0.03172301	 0.20769593
21896	 0.632066	 -0.044891052	 0.20530175
21906	 0.6344602	 -0.05027798	 0.18315549
21916	 0.63625586	 -0.05925619	 0.16879036
21926	 0.63625586	 -0.057460546	 0.15203103
21936	 0.63266456	 -0.05267217	 0.14065863
21946	 0.6272776	 -0.049679432	 0.13886298
21956	 0.6272776	 -0.041299768	 0.14125718
21966	 0.6153067	 -0.034715746	 0.14724265
21976	 0.60692704	 -0.033518653	 0.15382667
21986	 0.5961532	 -0.03890558	 0.16100924
21996	 0.59794885	 -0.04788379	 0.15262958
22006	 0.60812414	 -0.06284747	 0.13886298
22016	 0.613511	 -0.06105183	 0.12808913
22026	 0.6194965	 -0.06284747	 0.12150512
22036	 0.6470297	 -0.07900825	 0.099957414
22046	 0.64104426	 -0.037708484	 0.10055596
22056	 0.6619934	 -0.03591284	 0.10295015
22066	 0.66019773	 -0.107738525	 0.11851238
22076	 0.6703731	 -0.058657642	 0.08080389
22086	 0.63984716	 -0.06763585	 0.08020534
22096	 0.64104426	 -0.11492109	 0.10414724
22106	 0.6296718	 -0.11911093	 0.11851238
22116	 0.59076625	 -0.091577746	 0.14125718
22126	 0.5823866	 -0.049080886	 0.15262958
22136	 0.59675175	 -0.07481842	 0.17178309
22146	 0.61051834	 -0.06584021	 0.16879036
22156	 0.63984716	 -0.07781116	 0.14006008
22166	 0.73741037	 -0.07661406	 0.08619082
22176	 0.84993726	 -0.06165038	 0.0035912842
22187	 1.1073127	 -0.028131727	 -0.15143248
22197	 1.4413021	 -0.051475074	 -0.34356618
22207	 1.8501099	 -0.037109938	 -0.51295507
22217	 2.4157372	 0.044292506	 -0.6554094
22227	 2.873626	 0.06703731	 -0.6446355
22237	 2.539038	 0.031124463	 0.083796635
22247	 2.4851687	 -0.18076131	 0.7781116
22257	 2.8119755	 -0.3513473	 1.1833282
22267	 3.1357896	 -0.34596038	 1.402995
22277	 3.1770895	 -0.19991483	 1.9728122
22287	 3.9150984	 -0.8349736	 3.2519078
22297	 2.88021	 -1.1773427	 4.4597764
22307	 1.5185146	 0.28251436	 5.285772
22317	 2.6126592	 0.34416473	 5.736478
22327	 3.6840591	 0.81163025	 5.757427
22337	 4.481324	 1.6334357	 4.5076604
22347	 5.0230093	 2.3091958	 2.8161654
22358	 5.2905602	 2.8796115	 1.5598145
22368	 5.43481	 3.272857	 0.76733774
22378	 5.535366	 3.2764482	 0.33937636
22388	 5.5479355	 3.0184743	 0.2717405
22398	 5.4294233	 2.5635784	 0.5255246
22408	 5.1588798	 1.9919657	 1.061823
22418	 4.79616	 1.3598996	 1.7501525
22428	 4.347848	 0.7445929	 2.4121459
22438	 3.827112	 0.18375404	 2.893378
22448	 3.2429297	 -0.35972697	 3.1256144
22458	 2.6030824	 -0.9038065	 3.1136434
22468	 1.9357022	 -1.4341195	 2.807187
22478	 1.3102202	 -1.8842272	 2.1679385
22488	 0.78828686	 -2.2008586	 1.2784972
22498	 0.39145	 -2.3139842	 0.26096666
22508	 0.092176296	 -2.1888878	 -0.5243275
22518	 -0.20410465	 -1.8453215	 -0.7481842
22528	 -0.5219333	 -1.4000022	 -0.44711488
22538	 -0.8415576	 -0.98580754	 0.014365137
22548	 -1.1599848	 -0.6380515	 0.29987222
22558	 -1.4766164	 -0.38965434	 0.39085144
22568	 -1.8124014	 -0.3136388	 0.49978706
22578	 -2.1691356	 -0.3740921	 1.0175306
22588	 -2.5653741	 -0.6200951	 1.9787976
22598	 -3.014883	 -0.93313533	 2.7503252
22608	 -3.4476328	 -1.2288177	 3.0819204
22618	 -3.8827767	 -1.440105	 3.2082138
22628	 -4.2622557	 -1.5490406	 3.1968415
22638	 -4.575296	 -1.6005156	 3.196243
22648	 -4.8236933	 -1.5544275	 3.3003902
22658	 -5.01463	 -1.4832004	 3.3776028
22668	 -5.1385293	 -1.4658425	 3.1477606
22678	 -5.2175374	 -1.5125293	 2.5001323
22688	 -5.240282	 -1.6070997	 1.5813621
22699	 -5.2546473	 -1.6160779	 0.89422977
22712	 -5.324079	 -1.3886299	 0.15382667
22722	 -5.382138	 -1.2114599	 -0.5219333
22732	 -5.46773	 -1.073794	 -1.1342473
22742	 -5.6071916	 -0.95109177	 -1.0863634
22752	 -5.759223	 -0.85711986	 -0.57460546
22762	 -5.8472095	 -0.7583595	 -0.30885044
22772	 -5.822669	 -0.6847382	 -0.46387422
22782	 -5.703558	 -0.5835837	 -0.92056584
22792	 -5.202574	 -0.21787125	 -2.6868792
22802	 -5.3599916	 0.091577746	 -3.195046
22812	 -5.505439	 0.5446781	 -3.9270692
22822	 -5.893297	 0.3561357	 -4.8434453
22832	 -4.500478	 -0.08798646	 -4.6423335
22842	 -2.6761053	 -0.16160779	 -3.8839738
22852	 -1.9644325	 0.2549812	 -2.3253565
22862	 -1.787861	 0.33578506	 -1.6166764
22872	 -1.787861	 -0.35912842	 -1.1354444
22882	 -1.8321534	 -0.86370385	 0.36631098
22892	 -1.8710591	 -0.316033	 1.566997
22902	 -1.7417729	 0.4560931	 2.4546428
22912	 -1.1923064	 0.35314295	 2.728179
22922	 -0.8050462	 -0.028131727	 2.48457
22932	 -0.48302773	 -0.0796068	 2.029674
22942	 -0.2615652	 0.048482336	 1.7046629
22952	 -0.12569495	 0.092176296	 1.5304856
22962	 0.0029927369	 -0.07242423	 1.5197117
22972	 0.12150512	 -0.26575503	 1.498164
22982	 0.22146253	 -0.36631098	 1.3682793
22992	 0.44172797	 -1.1432254	 1.7914523
23002	 0.24720006	 -0.8804632	 2.27448
23012	 0.27473325	 -0.22684945	 2.218815
23022	 0.37888047	 0.023941895	 1.8848257
23032	 0.41120204	 0.082599536	 1.573581
23042	 0.46686694	 0.09397194	 1.2790958
23052	 0.48242918	 0.11911093	 1.0594288
23062	 0.50577253	 0.10953417	 0.86968935
23072	 0.52791876	 0.08619082	 0.70568734
23083	 0.54527664	 0.07242423	 0.5865764
23093	 0.5632331	 0.053869262	 0.47345096
23103	 0.5913648	 0.044292506	 0.36092407
23113	 0.6165038	 0.04010267	 0.26575503
23123	 0.6284747	 0.046088148	 0.2059003
23133	 0.6368544	 0.04369396	 0.16460052
23143	 0.63027036	 0.041898318	 0.14365137
23153	 0.6284747	 0.037109938	 0.1238993
23163	 0.6272776	 0.030525915	 0.09816177
23173	 0.6212922	 0.029328821	 0.09576758
23183	 0.6015401	 0.030525915	 0.11312545
23193	 0.5913648	 0.037708484	 0.1262935
23203	 0.5835837	 0.054467812	 0.14365137
23213	 0.57340837	 0.064643115	 0.15083393
23223	 0.5716127	 0.06943149	 0.13587025
23233	 0.5716127	 0.07661406	 0.11192836
23243	 0.57221127	 0.07122713	 0.101154506
23254	 0.5692186	 0.06643876	 0.10055596
23264	 0.5680215	 0.05267217	 0.10414724
23274	 0.56862	 0.055664904	 0.1023516
23284	 0.562036	 0.06105183	 0.10295015
23294	 0.562036	 0.058059096	 0.09756322
23304	 0.5584447	 0.055664904	 0.099957414
23314	 0.5542549	 0.05925619	 0.108337075
23324	 0.5518607	 0.06284747	 0.108935624
23334	 0.5506636	 0.064044565	 0.107738525
23344	 0.5422839	 0.065241665	 0.10295015
23354	 0.5422839	 0.06284747	 0.09756322
23364	 0.53988975	 0.06165038	 0.09576758
23374	 0.52492607	 0.0682344	 0.11073127
23384	 0.50696963	 0.07781116	 0.13287751
23394	 0.5003856	 0.07122713	 0.13706735
23404	 0.4967943	 0.06584021	 0.14963683
23414	 0.4902103	 0.065241665	 0.14724265
23424	 0.5087653	 0.062248927	 0.13347606
23434	 0.5255246	 0.060453285	 0.107738525
23444	 0.5578461	 0.041898318	 0.0909792
23454	 0.54407954	 0.05506636	 0.09397194
23464	 0.52672166	 0.041898318	 0.09816177
23474	 0.5231304	 0.032321557	 0.089782104
23484	 0.5219333	 -0.0041898317	 0.0784097
23494	 0.53031296	 -0.021547705	 0.07541697
23504	 0.57221127	 0.015562232	 0.06584021
23514	 0.58178806	 0.016759327	 0.056862
23524	 0.57221127	 0.04010267	 0.037708484
23534	 0.5853793	 0.0682344	 0.044292506
23544	 0.632066	 0.056263454	 0.05925619
23554	 0.6392486	 0.03172301	 0.044292506
23564	 0.65780354	 0.04070122	 0.022146253
23574	 0.7014975	 -0.016160779	 0.0035912842
23584	 0.82180554	 -0.07122713	 -0.06105183
23595	 1.0121436	 -0.11551964	 -0.1490383
23608	 1.3982067	 -0.21547705	 -0.26096666
23618	 1.4011993	 -0.12090657	 -0.18375404
23628	 1.548442	 -0.073621325	 -0.14843975
23638	 1.4257399	 -0.0047883787	 0.20051336
23648	 1.3676808	 0.13706735	 0.48063353
23658	 1.4173602	 0.056862	 0.7924767
23668	 1.7435685	 -0.33578506	 1.1276633
23678	 2.1092808	 -0.8074404	 1.3748633
23688	 2.445066	 -1.9033806	 1.7806784
23698	 1.5400624	 -2.194873	 2.7748656
23708	 1.535274	 -2.0943172	 3.4835458
23718	 1.9099647	 -1.6094939	 3.5392106
23728	 2.2661004	 -0.67576	 3.3728144
23738	 2.4731977	 0.34596038	 3.0962856
23748	 2.685682	 1.2425843	 2.5246727
23758	 2.862852	 1.945279	 1.8118029
23768	 2.9891455	 2.3876054	 1.225825
23778	 3.0262556	 2.567768	 0.8385649
23788	 2.9580212	 2.520483	 0.58837205
23798	 2.8125741	 2.2726843	 0.35074875
23808	 2.610265	 1.7782842	 0.07601552
23818	 2.369649	 0.9409165	 -0.15083393
23828	 2.1200547	 -0.17417729	 -0.21966688
23838	 1.7962407	 -1.3503228	 -0.117913835
23848	 1.4867916	 -2.3343349	 0.041299768
23858	 1.2078686	 -2.9412618	 0.19991483
23868	 0.966654	 -3.151352	 0.2819158
23878	 0.74279726	 -3.0292482	 0.2627623
23888	 0.5458752	 -2.6886747	 0.22984219
23898	 0.38067612	 -2.2595162	 0.22565235
23908	 0.24181314	 -1.8357447	 0.2729376
23918	 0.10654143	 -1.471828	 0.37888047
23928	 -0.028131727	 -1.2000874	 0.5422839
23938	 -0.18315549	 -1.010348	 0.71586263
23948	 -0.3537415	 -0.88345593	 0.8301852
23958	 -0.54288244	 -0.7846956	 0.91936874
23968	 -0.7308263	 -0.6751614	 1.0277058
23979	 -0.91817164	 -0.54767084	 1.0713998
23989	 -1.0983344	 -0.42437008	 0.96725255
23999	 -1.2778987	 -0.2980766	 0.86849225
24009	 -1.4371122	 -0.19632354	 0.7086801
24019	 -1.5711869	 -0.14424992	 0.44292507
24029	 -1.6920934	 -0.13467316	 0.11432255
24039	 -1.7842697	 -0.18914098	 -0.20649885
24049	 -1.8495114	 -0.23702475	 -0.4309541
24059	 -1.9129574	 -0.28849983	 -0.43394685
24069	 -1.99017	 -0.30645624	 -0.19093661
24079	 -2.0691783	 -0.31004754	 0.1262935
24089	 -2.1505806	 -0.2920911	 0.4195817
24099	 -2.2122312	 -0.24121459	 0.5656273
24109	 -2.2607133	 -0.15203103	 0.5482694
24119	 -2.2882466	 -0.035314295	 0.29089403
24129	 -2.2936335	 0.0682344	 -0.17717002
24139	 -2.299619	 0.1580165	 -0.62787616
24150	 -2.3175755	 0.23582767	 -0.8188128
24160	 -2.3439114	 0.3130403	 -0.688928
24170	 -2.352291	 0.38307032	 -0.42556718
24180	 -2.3295465	 0.44112942	 -0.29089403
24190	 -2.273283	 0.47464806	 -0.36212116
24200	 -2.197866	 0.49619576	 -0.4944001
24210	 -2.1110766	 0.52672166	 -0.5219333
24220	 -1.8465186	 0.29089403	 -1.2904681
24230	 -2.0171046	 0.20949158	 -1.2802929
24240	 -1.9309138	 0.11911093	 -1.5364711
24250	 -2.0177033	 0.0053869262	 -1.7154368
24260	 -1.8213797	 0.14065863	 -1.6418154
24270	 -1.2832855	 0.37708485	 -0.9409165
24280	 -0.54407954	 0.63745296	 -0.58059096
24290	 -0.23403202	 0.5560505	 -1.0025668
24300	 -0.3118432	 0.3333909	 -1.1486124
24310	 -0.5015827	 0.6793513	 0.35912842
24320	 -0.41778606	 1.0755897	 1.4257399
24330	 -0.18614823	 0.966654	 1.496967
24340	 0.019752063	 0.76135224	 1.061823
24350	 0.13347606	 0.49200594	 0.82419974
24360	 0.16280489	 0.17118455	 0.9516903
24370	 0.15143248	 -0.101154506	 1.0295014
24380	 0.18734533	 -0.28371146	 0.8373678
24390	 0.2501928	 -0.32321557	 0.54886794
24400	 0.28610563	 -0.3321938	 0.42556718
24410	 0.2729376	 -0.32261702	 0.47464806
24420	 0.2765289	 -0.27712744	 0.4944001
24430	 0.29628095	 -0.18495114	 0.42317298
24440	 0.3286025	 -0.047285244	 0.3118432
24450	 0.3513473	 0.058059096	 0.16220634
24460	 0.38307032	 0.14424992	 0.060453285
24470	 0.3992311	 0.20949158	 -0.035314295
24480	 0.42437008	 0.24121459	 -0.14006008
24491	 0.42915845	 0.2160756	 -0.15741795
24501	 0.42377153	 0.1580165	 -0.13587025
24513	 0.42437008	 0.13946153	 -0.053869262
24523	 0.40641367	 0.13706735	 0.0035912842
24534	 0.40581512	 0.060453285	 0.0
24544	 0.3878587	 -0.044891052	 0.10953417
24554	 0.35673425	 -0.053869262	 0.25617826
24564	 0.34476328	 0.016160779	 0.2567768
24574	 0.3525444	 0.08080389	 0.170586
24584	 0.3866616	 0.092176296	 0.014365137
24594	 0.38726014	 0.1568194	 0.46387422
24604	 0.30885044	 0.15502377	 0.7565639
24614	 0.2944853	 0.08559228	 0.5787953
24624	 0.341172	 0.016160779	 0.4082093
24634	 0.3537415	 0.055664904	 0.29388675
24644	 0.35912842	 -0.01376659	 0.3136388
24654	 0.26994488	 0.04369396	 0.44891053
24664	 0.2753318	 0.0113724	 0.34895313
24674	 0.29867515	 0.014963685	 0.2795216
24684	 0.29927367	 0.023941895	 0.22146253
24694	 0.30645624	 0.01376659	 0.1933308
24704	 0.28610563	 0.03830703	 0.19632354
24714	 0.26814923	 0.054467812	 0.19871773
24724	 0.26874778	 0.053270716	 0.18315549
24734	 0.2753318	 0.05207362	 0.15741795
24744	 0.2717405	 0.062248927	 0.16160779
24754	 0.2741347	 0.056862	 0.15981215
24764	 0.27233905	 0.06165038	 0.15322812
24774	 0.27473325	 0.0682344	 0.1490383
24784	 0.2717405	 0.0682344	 0.14544702
24794	 0.26515648	 0.07062859	 0.1478412
24804	 0.26216376	 0.065241665	 0.1466441
24814	 0.26575503	 0.050876528	 0.13168041
24824	 0.28251436	 -0.0029927369	 0.12330076
24834	 0.2717405	 0.08140244	 0.0682344
24844	 0.28610563	 -0.20350611	 0.12449785
24854	 0.27114195	 -0.1238993	 0.11611819
24864	 0.2567768	 -0.092774846	 0.12449785
24875	 0.22684945	 -0.06105183	 0.1819584
24885	 0.23343347	 -0.07242423	 0.170586
24895	 0.22206107	 -0.008379663	 0.14424992
24905	 0.21667415	 -0.0053869262	 0.15203103
24915	 0.20829448	 0.026336085	 0.11911093
24925	 0.23044074	 0.009576757	 0.12808913
24935	 0.21846978	 0.041898318	 0.1466441
24945	 0.22146253	 0.0454896	 0.1238993
24955	 0.2148785	 0.07062859	 0.12868768
24965	 0.21009013	 0.0784097	 0.12030802
24975	 0.21547705	 0.07122713	 0.099358864
24985	 0.21787125	 0.07481842	 0.0909792
24995	 0.21667415	 0.083198085	 0.08140244
25005	 0.22684945	 0.06643876	 0.06883295
25015	 0.1933308	 0.060453285	 0.15083393
25025	 0.19093661	 0.05925619	 0.15741795
25035	 0.20949158	 0.0341172	 0.12449785
25046	 0.23343347	 0.023343347	 0.089782104
25056	 0.26395938	 0.016759327	 0.05985474
25066	 0.3172301	 0.058657642	 0.11611819
25076	 0.43993232	 0.09816177	 0.26874778
25086	 0.4955972	 0.17357874	 0.3992311
25096	 0.49380156	 0.24660152	 0.49858996
25106	 0.48302773	 0.37828195	 0.38426742
25116	 0.65481085	 0.4118006	 0.46926114
25126	 1.0953417	 0.15203103	 1.055239
25136	 1.4580613	 -0.017357873	 1.2659277
25146	 1.6962832	 -0.099358864	 1.068407
25156	 1.9560528	 -0.18315549	 0.5297144
25166	 2.1140692	 -0.27892306	 0.1238993
25176	 2.1511793	 -0.4435236	 -0.02035061
25186	 2.1769168	 -0.688928	 0.021547705
25196	 2.1655443	 -0.95707726	 0.08020534
25206	 2.122449	 -1.1881166	 0.07003004
25216	 2.0578058	 -1.3305708	 -0.024540443
25226	 1.9919657	 -1.3640895	 -0.04369396
25236	 1.901585	 -1.3054318	 0.15861505
25246	 1.7914523	 -1.1863209	 0.4560931
25256	 1.6651587	 -1.0390782	 0.6446355
25266	 1.5370697	 -0.8744777	 0.6434384
25276	 1.4006008	 -0.6973077	 0.518342
25286	 1.2611393	 -0.5171449	 0.36451533
25296	 1.1174879	 -0.3627197	 0.2603681
25306	 0.96844965	 -0.24420732	 0.2489957
25316	 0.81163025	 -0.16400197	 0.2549812
25326	 0.65361375	 -0.12210366	 0.19931628
25336	 0.50696963	 -0.099957414	 0.058059096
25346	 0.36631098	 -0.07721261	 -0.074219875
25356	 0.22206107	 -0.04070122	 -0.06943149
25366	 0.08080389	 0.017357873	 -0.0107738525
25376	 -0.06165038	 0.092774846	 -0.016759327
25387	 -0.20769593	 0.17657147	 -0.056263454
25397	 -0.36631098	 0.26096666	 0.10055596
25410	 -0.6949135	 0.40162528	 0.5716127
25420	 -0.8493387	 0.43693957	 0.5560505
25430	 -1.0043625	 0.44531924	 0.32920104
25440	 -1.1486124	 0.44053087	 -0.03591284
25450	 -1.2784972	 0.43514395	 -0.4171875
25460	 -1.2916652	 0.48841465	 -1.0534433
25470	 -1.4760178	 0.34655893	 -1.6908963
25480	 -1.9817903	 0.27473325	 -1.2515626
25490	 -2.4606283	 0.24001749	 -1.1432254
25500	 -2.8580637	 -0.0071825683	 -1.0708013
25510	 -3.6625113	 0.63984716	 -0.91817164
25520	 -3.7169793	 0.92535424	 -0.35194585
25530	 -3.9510112	 0.9247557	 0.0011970947
25540	 -3.4111214	 1.5316827	 0.68832946
25550	 -2.3977807	 1.5993186	 0.9911944
25560	 -1.6005156	 1.3491257	 0.7691334
25570	 -0.8349736	 0.94750047	 0.023343347
25580	 -0.31423736	 0.6296718	 -0.7769145
25590	 -0.058657642	 0.38546452	 -1.0474579
25600	 -0.015562232	 0.28610563	 -0.8224041
25610	 0.0023941894	 0.27593035	 -0.22804655
25620	 -0.07242423	 0.34835458	 0.30525917
25630	 -0.08738792	 0.398034	 0.63745296
25640	 0.0227448	 0.14604555	 0.9564787
25650	 -0.06943149	 0.044292506	 1.2820885
25660	 -0.0041898317	 0.02513899	 0.941515
25670	 0.08798646	 0.044891052	 0.58478075
25680	 0.13108188	 0.049080886	 0.47823936
25690	 0.1490383	 -0.0047883787	 0.3130403
25700	 0.20230901	 -0.06584021	 0.117315285
25710	 0.22445527	 -0.108337075	 0.023941895
25720	 0.22984219	 -0.12210366	 0.019153515
25730	 0.22325817	 -0.07781116	 0.019153515
25740	 0.18315549	 -0.02513899	 0.099358864
25750	 0.16460052	 0.03591284	 0.13467316
25760	 0.15562232	 0.037708484	 0.17477584
25771	 0.12689205	 0.012569495	 0.23223639
25781	 0.117913835	 -0.02513899	 0.259171
25791	 0.1250964	 0.009576757	 0.29149258
25801	 0.1376659	 0.04010267	 0.30047077
25811	 0.13706735	 0.05207362	 0.2765289
25821	 0.12868768	 0.029328821	 0.25438264
25831	 0.12449785	 0.016160779	 0.23343347
25841	 0.14125718	 -0.0023941894	 0.18135986
25851	 0.16460052	 -0.03890558	 0.1274906
25861	 0.17238164	 -0.073022775	 0.101753056
25871	 0.17597292	 -0.07541697	 0.1035487
25881	 0.17238164	 -0.083198085	 0.10295015
25891	 0.18016276	 -0.09756322	 0.082599536
25901	 0.18255694	 -0.0909792	 0.07601552
25911	 0.16879036	 -0.053869262	 0.101753056
25921	 0.16100924	 -0.014365137	 0.12449785
25931	 0.15262958	 0.0119709475	 0.1376659
25942	 0.15442522	 0.04788379	 0.13467316
25952	 0.15203103	 0.05985474	 0.1274906
25962	 0.1490383	 0.056263454	 0.11911093
25972	 0.14424992	 0.056862	 0.11132981
25982	 0.1376659	 0.06105183	 0.11132981
25992	 0.14006008	 0.03591284	 0.099957414
26002	 0.14604555	 -5.9854734E-4	 0.07541697
26012	 0.14843975	 -0.032920104	 0.054467812
26022	 0.14843975	 -0.058059096	 0.03890558
26032	 0.15262958	 -0.0796068	 0.028131727
26042	 0.15023538	 -0.08499373	 0.0341172
26052	 0.1592136	 -0.07182568	 0.034715746
26062	 0.16639617	 -0.058657642	 0.046088148
26072	 0.1568194	 -0.034715746	 0.05985474
26082	 0.15322812	 -0.02035061	 0.064643115
26092	 0.1490383	 0.0	 0.07003004
26102	 0.14724265	 0.0065840213	 0.06943149
26112	 0.13287751	 0.0113724	 0.092176296
26122	 0.12569495	 0.0107738525	 0.099957414
26132	 0.12330076	 0.010175305	 0.10594288
26142	 0.10953417	 0.0065840213	 0.1262935
26152	 0.092774846	 0.0107738525	 0.14724265
26162	 0.092176296	 0.0065840213	 0.15322812
26172	 0.09457049	 -0.01376659	 0.15562232
26182	 0.083198085	 -0.02992737	 0.1945279
26192	 0.0784097	 -0.03890558	 0.22445527
26202	 0.07541697	 -0.055664904	 0.26336083
26212	 0.082000986	 -0.07122713	 0.29029548
26222	 0.12868768	 -0.11911093	 0.28490853
26232	 0.1592136	 -0.1693889	 0.23582767
26242	 0.17896566	 -0.2501928	 0.22445527
26252	 0.2603681	 -0.31244174	 0.15203103
26262	 0.34177056	 -0.38546452	 -0.034715746
26272	 0.40162528	 -0.50696963	 -0.06883295
26283	 0.44891053	 -0.66618323	 -0.15622087
26293	 0.55485344	 -0.87387913	 0.044292506
26303	 0.79666656	 -1.0540419	 0.26575503
26315	 1.2503655	 -1.5759752	 0.35194585
26326	 1.3491257	 -1.648998	 0.62907326
26336	 1.4143674	 -1.5825592	 0.8164186
26346	 1.5161204	 -1.4245428	 0.8331779
26356	 1.6286474	 -1.1605834	 0.7050888
26366	 1.7166338	 -0.8200099	 0.5410868
26376	 1.7711017	 -0.46267712	 0.39863256
26386	 1.8052188	 -0.1568194	 0.30406207
26396	 1.8052188	 0.06165038	 0.2579739
26406	 1.7663133	 0.19692208	 0.25857246
26416	 1.6956847	 0.252587	 0.3136388
26426	 1.5933331	 0.25976956	 0.4171875
26436	 1.4730251	 0.2376233	 0.5345028
26446	 1.3305708	 0.1945279	 0.6530152
26456	 1.1785398	 0.15622087	 0.70808154
26466	 1.0133407	 0.1466441	 0.6811469
26476	 0.85711986	 0.15262958	 0.5650287
26486	 0.71586263	 0.19512644	 0.38187322
26496	 0.5835837	 0.26755068	 0.19811918
26506	 0.45190325	 0.36690953	 0.062248927
26516	 0.3286025	 0.47704226	 -0.034715746
26526	 0.21009013	 0.58059096	 -0.053270716
26536	 0.08858501	 0.6703731	 0.04369396
26546	 -0.03890558	 0.7380089	 0.21787125
26556	 -0.18375404	 0.7733232	 0.45968437
26566	 -0.33578506	 0.7703305	 0.6799498
26576	 -0.48362628	 0.7266365	 0.7817029
26586	 -0.6242849	 0.66977453	 0.75776094
26596	 -0.7445929	 0.6147081	 0.59794885
26606	 -0.84634596	 0.58059096	 0.36571243
26616	 -0.9301426	 0.5638316	 0.12449785
26626	 -1.0019683	 0.5608389	 -0.08140244
26636	 -1.0606259	 0.5680215	 -0.2477986
26646	 -1.1013272	 0.58178806	 -0.35912842
26656	 -1.1348459	 0.600343	 -0.38366887
26667	 -1.1510066	 0.6218907	 -0.3501502
26677	 -1.1510066	 0.65241665	 -0.28790128
26687	 -1.1426269	 0.6745629	 -0.21427996
26697	 -1.1324517	 0.7164612	 -0.17178309
26707	 -1.1210792	 0.74878275	 -0.19752063
26717	 -1.0923489	 0.764345	 -0.30406207
26727	 -1.0504507	 0.7571624	 -0.42796138
26737	 -1.0079538	 0.7272351	 -0.5087653
26747	 -0.97383654	 0.68174547	 -0.5255246
26757	 -0.9445077	 0.6380515	 -0.49080884
26767	 -0.9259528	 0.59316045	 -0.43514395
26777	 -0.90320796	 0.5482694	 -0.38007757
26787	 -0.8804632	 0.51295507	 -0.3387778
26797	 -0.8553242	 0.49499866	 -0.32800394
26807	 -0.8224041	 0.5099624	 -0.3387778
26817	 -0.8002578	 0.44531924	 -0.8517329
26827	 -0.8678937	 0.6147081	 -1.0767868
26838	 -0.9367266	 0.7823014	 -1.3239868
26848	 -1.1031228	 1.0259101	 -1.4299296
26858	 -1.2449785	 1.224628	 -1.3874328
26868	 -1.0881591	 1.1462182	 -0.85891545
26878	 -0.8295866	 0.8894414	 -0.2047032
26888	 -0.575204	 0.5632331	 0.18973951
26898	 -0.40581512	 0.22984219	 -0.012569495
26908	 -0.2968795	 -0.028730273	 -0.3932456
26918	 -0.18614823	 -0.36750808	 -0.6584021
26928	 -0.18914098	 -0.80444765	 -0.6177009
26938	 -0.31244174	 -1.2234309	 -0.32141992
26948	 -0.50218123	 -1.5149233	 0.016759327
26958	 -0.68413967	 -1.5987201	 0.7469871
26968	 -0.5356999	 -1.1426269	 1.2431829
26978	 -0.3321938	 -0.5865764	 1.2216352
26988	 -0.2160756	 -0.06703731	 0.8948283
26998	 0.07601552	 -0.19991483	 0.90799636
27008	 -0.30765334	 -0.21787125	 1.9710165
27018	 -0.08080389	 -0.372895	 1.1827296
27028	 -0.0682344	 -0.1580165	 0.95468307
27038	 -0.019752063	 -0.0011970947	 0.9247557
27048	 -0.0029927369	 0.019752063	 0.6709716
27058	 0.018554969	 0.02753318	 0.6308689
27068	 0.012569495	 0.041898318	 0.49978706
27078	 0.022146253	 0.04369396	 0.45429745
27088	 -0.0053869262	 0.062248927	 0.44771343
27098	 0.01376659	 0.06344602	 0.37109938
27108	 0.0341172	 0.062248927	 0.31244174
27118	 0.03890558	 0.06344602	 0.25557974
27128	 0.04369396	 0.04309541	 0.24839716
27138	 0.037109938	 0.033518653	 0.22146253
27148	 0.056263454	 0.021547705	 0.18794388
27158	 0.06105183	 0.01795642	 0.1693889
27168	 0.06344602	 0.0107738525	 0.15622087
27179	 0.05506636	 -0.012569495	 0.17417729
27189	 0.046088148	 -0.0035912842	 0.1819584
27199	 0.05027798	 0.0029927369	 0.170586
27209	 0.048482336	 0.0023941894	 0.16160779
27222	 0.05027798	 -0.0113724	 0.14185573
27232	 0.05267217	 -0.009576757	 0.12868768
27242	 0.05267217	 -0.008379663	 0.116716735
27252	 0.051475074	 -0.023343347	 0.10654143
27262	 0.06105183	 -0.033518653	 0.092176296
27272	 0.06763585	 -0.04369396	 0.082599536
27282	 0.06284747	 -0.049679432	 0.07601552
27292	 0.06643876	 -0.053270716	 0.07661406
27302	 0.06943149	 -0.03591284	 0.0784097
27312	 0.06165038	 -0.02753318	 0.0909792
27322	 0.060453285	 -0.019752063	 0.09636613
27332	 0.058059096	 -0.014365137	 0.09636613
27342	 0.055664904	 -0.0119709475	 0.1023516
27352	 0.051475074	 -0.0011970947	 0.10953417
27362	 0.0454896	 0.0047883787	 0.116716735
27372	 0.044292506	 0.0023941894	 0.116716735
27382	 0.048482336	 -0.0059854737	 0.11492109
27392	 0.046686694	 -0.0047883787	 0.11073127
27402	 0.048482336	 -0.012569495	 0.11192836
27412	 0.049679432	 -0.0119709475	 0.113724
27422	 0.050876528	 -0.0071825683	 0.10953417
27432	 0.053869262	 -0.007781116	 0.10055596
27442	 0.053270716	 -0.0065840213	 0.10534434
27452	 0.04788379	 -0.0035912842	 0.10713998
27462	 0.048482336	 -0.007781116	 0.11132981
27472	 0.044891052	 -0.0107738525	 0.108337075
27482	 0.046686694	 -0.010175305	 0.10713998
27492	 0.048482336	 -0.0107738525	 0.10534434
27502	 0.044891052	 -0.007781116	 0.1023516
27512	 0.046686694	 -0.0071825683	 0.1023516
27522	 0.049080886	 -0.007781116	 0.099358864
27532	 0.047285244	 -0.008379663	 0.098760314
27542	 0.0454896	 -0.008379663	 0.098760314
27552	 0.046686694	 -0.007781116	 0.09756322
27563	 0.0454896	 -0.0053869262	 0.099358864
27573	 0.050876528	 -0.0071825683	 0.09457049
27583	 0.049679432	 -0.0065840213	 0.09457049
27593	 0.047285244	 -0.007781116	 0.09457049
27603	 0.046686694	 -0.007781116	 0.09516903
27613	 0.04369396	 -0.0053869262	 0.09516903
27623	 0.044891052	 -0.0059854737	 0.09636613
27633	 0.0454896	 -0.0017956421	 0.09756322
27643	 0.042496864	 -0.0053869262	 0.098760314
27653	 0.04010267	 -0.0053869262	 0.1023516
27663	 0.04010267	 -0.0047883787	 0.10414724
27673	 0.039504126	 -0.0053869262	 0.107738525
27683	 0.03830703	 -0.008379663	 0.108337075
27693	 0.039504126	 -0.010175305	 0.10414724
27703	 0.03830703	 -0.009576757	 0.10295015
27713	 0.03890558	 -0.009576757	 0.09816177
27723	 0.039504126	 -0.0059854737	 0.09397194
27734	 0.042496864	 -0.0065840213	 0.09397194
27744	 0.04309541	 -0.0041898317	 0.0909792
27754	 0.04070122	 -0.0041898317	 0.089782104
27764	 0.041299768	 -0.0059854737	 0.0909792
27774	 0.03890558	 -0.0029927369	 0.09576758
27784	 0.036511388	 -5.9854734E-4	 0.09636613
27794	 0.036511388	 -0.0017956421	 0.09516903
27804	 0.036511388	 -0.0041898317	 0.09696467
27814	 0.034715746	 -0.0053869262	 0.099957414
27824	 0.037708484	 -0.0071825683	 0.09816177
27834	 0.03591284	 -0.009576757	 0.099358864
27844	 0.033518653	 -0.00897821	 0.10295015
27854	 0.02992737	 -0.0065840213	 0.108935624
27864	 0.031124463	 -0.0059854737	 0.11013272
27874	 0.034715746	 -0.0029927369	 0.10594288
27884	 0.031124463	 -0.0041898317	 0.108337075
27894	 0.030525915	 -0.01795642	 0.11192836
27904	 0.029328821	 -0.017357873	 0.11132981
27914	 0.033518653	 -0.019153515	 0.11192836
27924	 0.036511388	 -0.01795642	 0.11073127
27934	 0.037708484	 -0.014365137	 0.10534434
27944	 0.026336085	 -0.0065840213	 0.11851238
27954	 0.029328821	 -0.016759327	 0.14305282
27964	 0.017357873	 -0.023343347	 0.17357874
27974	 0.014365137	 -0.058657642	 0.20649885
27984	 -0.0107738525	 -0.05985474	 0.2567768
27994	 -0.023343347	 -0.083198085	 0.29628095
28004	 -0.0131680425	 -0.14604555	 0.32441267
28014	 0.016160779	 -0.195725	 0.30047077
28024	 0.037708484	 -0.21427996	 0.26455793
28034	 0.04788379	 -0.099957414	 0.17657147
28044	 0.056862	 0.02035061	 0.058059096
28054	 0.0454896	 -0.074219875	 0.1568194
28064	 0.116716735	 -0.22146253	 0.14006008
28075	 0.32201847	 -0.3639168	 -0.07721261
28085	 0.46148002	 -0.80444765	 0.10713998
28095	 0.64523405	 -1.2940594	 0.28012016
28105	 0.8702879	 -1.7369845	 0.39145
28118	 1.2647306	 -2.2882466	 0.5614374
28128	 1.4395064	 -2.1511793	 0.9259528
28138	 1.6130852	 -1.8866214	 1.2024816
28148	 1.7304004	 -1.6346328	 1.3150085
28158	 1.813	 -1.4610541	 1.2198396
28168	 1.8608837	 -1.2880739	 0.9977785
28178	 1.881833	 -1.0504507	 0.78828686
28188	 1.881833	 -0.72065103	 0.63984716
28198	 1.8716576	 -0.33279234	 0.5542549
28208	 1.8381389	 0.037109938	 0.5123565
28218	 1.7639191	 0.32381412	 0.4788379
28228	 1.6555821	 0.49858996	 0.47345096
28238	 1.5161204	 0.58298516	 0.48841465
28248	 1.3587025	 0.59854734	 0.511758
28258	 1.1881166	 0.56981707	 0.5458752
28268	 1.0085523	 0.49858996	 0.5644302
28278	 0.8236012	 0.39863256	 0.5584447
28288	 0.64104426	 0.28730273	 0.52372897
28298	 0.4572902	 0.18614823	 0.45848727
28308	 0.2932882	 0.10414724	 0.36571243
28318	 0.15203103	 0.05925619	 0.2615652
28328	 0.032920104	 0.065241665	 0.16160779
28338	 -0.07661406	 0.11252691	 0.089782104
28348	 -0.1681918	 0.17417729	 0.018554969
28358	 -0.2286451	 0.22984219	 -0.0017956421
28368	 -0.29149258	 0.29029548	 0.099957414
28378	 -0.35194585	 0.3423691	 0.259171
28388	 -0.39863256	 0.38127467	 0.43274975
28398	 -0.44950908	 0.4147933	 0.6200951
28408	 -0.4914074	 0.4560931	 0.7272351
28418	 -0.52133477	 0.5099624	 0.69551206
28428	 -0.53749555	 0.58597785	 0.5674229
28438	 -0.5410868	 0.6811469	 0.39504126
28448	 -0.54527664	 0.7805058	 0.23463057
28459	 -0.5482694	 0.8517329	 0.116716735
28469	 -0.5614374	 0.88106173	 0.037109938
28479	 -0.58717495	 0.8654995	 0.026336085
28489	 -0.62907326	 0.821207	 0.05985474
28499	 -0.6781542	 0.7595566	 0.08080389
28509	 -0.7284321	 0.70089895	 0.057460546
28519	 -0.7840971	 0.65900064	 0.015562232
28529	 -0.8493387	 0.64403695	 -0.032920104
28539	 -0.91577744	 0.65900064	 -0.07003004
28549	 -0.9911944	 0.6949135	 -0.10713998
28559	 -1.0713998	 0.73142487	 -0.170586
28569	 -1.1581892	 0.75357115	 -0.26336083
28579	 -1.2527597	 0.76853484	 -0.3740921
28589	 -1.3557098	 0.7787101	 -0.46327567
28599	 -1.4652439	 0.796068	 -0.5027798
28609	 -1.5699898	 0.8367692	 -0.49858996
28619	 -1.725612	 0.62907326	 -0.9690482
28630	 -1.8938038	 0.6715701	 -1.118685
28640	 -2.1445951	 0.6835411	 -1.5622087
28650	 -2.6360025	 0.878069	 -2.115865
28660	 -3.0873072	 1.1964962	 -2.6790981
28670	 -2.5611842	 1.3257824	 -2.6653314
28680	 -1.7417729	 1.2198396	 -1.8866214
28690	 -0.98580754	 0.8948283	 -1.1593863
28700	 -0.59316045	 0.5865764	 -1.3569069
28710	 -0.5135536	 0.543481	 -1.5041496
28720	 -0.55485344	 0.5105609	 -0.7553668
28730	 -0.68832946	 0.23702475	 0.0035912842
28740	 -0.90919346	 -0.007781116	 0.7805058
28750	 -0.87088645	 0.15203103	 1.4377108
28760	 -0.6937164	 0.48602048	 1.7226193
28770	 -0.511758	 0.5925619	 1.6914948
28780	 -0.3764863	 0.39384416	 1.4820033
28790	 -0.29508385	 0.10055596	 1.249767
28800	 -0.23163784	 -0.073621325	 1.0576332
28810	 -0.17776857	 -0.07541697	 0.9050036
28820	 -0.12270221	 0.023941895	 0.8002578
28830	 -0.07721261	 0.13048333	 0.72184813
28840	 0.054467812	 0.035314295	 0.7164612
28850	 -0.108935624	 -0.051475074	 1.6507937
28860	 -0.101753056	 -0.0023941894	 1.35152
28870	 -0.019752063	 0.108337075	 1.1103053
28880	 -0.08619082	 0.15203103	 0.9989756
28890	 -0.04070122	 0.089782104	 0.7840971
28900	 -0.041898318	 0.06943149	 0.6631905
28910	 -0.010175305	 0.06105183	 0.5578461
28920	 -0.015562232	 0.08678937	 0.5039769
28930	 0.0029927369	 0.06883295	 0.42257443
28940	 0.0041898317	 0.026934631	 0.37469065
28950	 0.020949159	 -0.0011970947	 0.30406207
28960	 0.029328821	 -0.030525915	 0.259171
28971	 0.037109938	 -0.03591284	 0.22086398
28981	 0.049679432	 -0.05506636	 0.18076131
28991	 0.05267217	 -0.06344602	 0.15382667
29001	 0.053869262	 -0.0796068	 0.13946153
29011	 0.060453285	 -0.07661406	 0.13587025
29021	 0.05506636	 -0.06643876	 0.1352717
29031	 0.046686694	 -0.05506636	 0.1352717
29041	 0.06284747	 -0.16100924	 0.058657642
29051	 0.049679432	 -0.11192836	 0.11312545
29061	 0.05267217	 -0.14544702	 0.073621325
29071	 0.044292506	 -0.08080389	 0.11551964
29084	 0.03890558	 -0.07003004	 0.12270221
29094	 0.03591284	 -0.07601552	 0.11851238
29104	 0.0454896	 -0.083796635	 0.11192836
29114	 0.04309541	 -0.082000986	 0.11073127
29124	 0.04369396	 -0.0796068	 0.116716735
29134	 0.035314295	 -0.07601552	 0.12090657
29144	 0.037708484	 -0.07661406	 0.12449785
29154	 0.042496864	 -0.08559228	 0.1238993
29164	 0.046088148	 -0.090380654	 0.11851238
29174	 0.04788379	 -0.08080389	 0.117913835
29184	 0.047285244	 -0.05925619	 0.11911093
29194	 0.047285244	 -0.042496864	 0.11432255
29204	 0.049080886	 -0.03591284	 0.11312545
29214	 0.056862	 -0.030525915	 0.107738525
29224	 0.05267217	 -0.030525915	 0.10654143
29234	 0.054467812	 -0.037109938	 0.101753056
29244	 0.053270716	 -0.04309541	 0.10295015
29254	 0.053270716	 -0.04309541	 0.099358864
29264	 0.055664904	 -0.048482336	 0.09397194
29274	 0.054467812	 -0.03890558	 0.089782104
29284	 0.05506636	 -0.032920104	 0.092176296
29294	 0.055664904	 -0.028730273	 0.0909792
29304	 0.053270716	 -0.019752063	 0.090380654
29314	 0.05267217	 -0.014963685	 0.08619082
29324	 0.04788379	 -0.016759327	 0.08918356
29334	 0.04369396	 -0.016759327	 0.091577746
29344	 0.041299768	 -0.015562232	 0.089782104
29355	 0.04309541	 -0.015562232	 0.09457049
29365	 0.04309541	 -0.017357873	 0.09337339
29375	 0.037109938	 -0.012569495	 0.09816177
29385	 0.03591284	 -0.0119709475	 0.10055596
29395	 0.03591284	 -0.017357873	 0.101154506
29405	 0.030525915	 -0.018554969	 0.107738525
29415	 0.030525915	 -0.016759327	 0.11252691
29425	 0.023941895	 -0.014365137	 0.1250964
29435	 0.014963685	 -0.017357873	 0.15442522
29445	 0.0113724	 -0.031124463	 0.18135986
29455	 -0.0017956421	 -0.056263454	 0.21906833
29465	 -0.023941895	 -0.08499373	 0.27712744
29475	 -0.035314295	 -0.1035487	 0.31423736
29485	 -0.028730273	 -0.1035487	 0.32201847
29495	 -0.03890558	 -0.12988478	 0.3387778
29505	 -0.019752063	 -0.17776857	 0.34596038
29515	 0.0023941894	 -0.21188577	 0.30885044
29526	 0.048482336	 -0.26455793	 0.2627623
29536	 0.06584021	 -0.31543446	 0.24480587
29546	 0.18854243	 -0.3740921	 0.16460052
29556	 0.32381412	 -0.39504126	 0.054467812
29566	 0.36990228	 -0.5027798	 -0.029328821
29576	 0.4967943	 -0.44053087	 0.032321557
29586	 0.8888428	 -0.52133477	 -0.008379663
29596	 1.219241	 -0.7320234	 -0.16280489
29606	 1.5268943	 -1.016932	 0.046686694
29616	 1.8411317	 -1.0438666	 0.51415217
29626	 2.0997043	 -1.0301	 1.0785824
29636	 2.3451085	 -1.2150512	 1.4610541
29646	 2.5138988	 -1.5472449	 1.6406183
29656	 2.5976956	 -1.9057748	 1.5993186
29666	 2.6455793	 -2.1829023	 1.4544702
29676	 2.6252286	 -2.2948306	 1.3102202
29686	 2.564177	 -2.230786	 1.1988903
29696	 2.4642196	 -2.0194988	 1.061823
29706	 2.332539	 -1.7160352	 0.9008138
29716	 2.1805081	 -1.3844401	 0.74100167
29726	 2.000944	 -1.0498521	 0.63865006
29736	 1.8082116	 -0.7332205	 0.6212922
29746	 1.6148808	 -0.44053087	 0.682344
29756	 1.3982067	 -0.17836712	 0.79427236
29766	 1.1905107	 0.07481842	 0.90679926
29776	 0.9911944	 0.31902575	 0.9552816
29786	 0.79307526	 0.51654637	 0.934931
29796	 0.5949561	 0.64882535	 0.8631053
29806	 0.3992311	 0.6937164	 0.75117695
29816	 0.19632354	 0.65780354	 0.63386166
29826	 0.0023941894	 0.57101417	 0.52372897
29836	 -0.18554969	 0.47225386	 0.43394685
29846	 -0.3561357	 0.39204854	 0.34177056
29856	 -0.5123565	 0.33578506	 0.25557974
29867	 -0.65361375	 0.31782866	 0.2148785
29877	 -0.7900825	 0.3333909	 0.25557974
29887	 -0.92415714	 0.36631098	 0.38426742
29897	 -1.0606259	 0.39743546	 0.52372897
29907	 -1.194102	 0.42855993	 0.6296718
29917	 -1.3311694	 0.47165534	 0.6530152
29927	 -1.4568642	 0.5321086	 0.5356999
29937	 -1.5813621	 0.6087227	 0.3136388
29947	 -1.6962832	 0.6925193	 0.049080886
29957	 -1.8159927	 0.7823014	 -0.19273226
29967	 -1.9404906	 0.87088645	 -0.36870518
29977	 -2.0685797	 0.96126705	 -0.4740495
29987	 -2.2002602	 1.0558375	 -0.50816673
29997	 -2.330145	 1.1539993	 -0.51534927
30007	 -2.4480588	 1.2551538	 -0.5680215
30020	 -2.6563532	 1.4389079	 -0.74100167
30030	 -2.5450234	 1.0390782	 -1.610691
30040	 -2.7844424	 1.0474579	 -1.7327946
30050	 -3.078329	 0.726038	 -2.2786698
30060	 -3.4506257	 0.76973194	 -2.9376705
30070	 -3.2680686	 0.8654995	 -3.2560978
30080	 -2.4031677	 0.90320796	 -2.4863658
30090	 -1.548442	 0.8385649	 -1.3305708
30100	 -1.004961	 0.8062433	 -1.0558375
30110	 -0.796068	 0.9780264	 -1.2665262
30120	 -0.6619934	 1.125269	 -0.80684185
30130	 -0.73142487	 1.1330502	 -0.38127467
30140	 -0.8894414	 0.76374644	 0.37828195
30150	 -0.90201086	 0.8074404	 1.4616526
30160	 -0.71825683	 0.8224041	 1.9069719
30170	 -0.50816673	 0.6769571	 1.5310842
30180	 -0.33279234	 0.4183846	 1.0833707
30190	 -0.28969693	 0.1490383	 0.9427121
30200	 -0.28431	 0.026336085	 1.0516478
30210	 -0.27473325	 0.062248927	 1.1462182
30220	 -0.21308286	 0.13168041	 1.1091083
30230	 -0.15562232	 0.16639617	 1.0474579
30240	 -0.116716735	 0.16160779	 1.0181291
30251	 -0.0784097	 0.14065863	 0.9367266
30261	 0.034715746	 -0.049679432	 1.042071
30271	 -0.10474579	 -0.20230901	 1.7615249
30281	 -0.091577746	 -0.11611819	 1.3988051
30291	 -0.007781116	 -0.06344602	 1.2090657
30301	 -0.06703731	 0.06165038	 1.1408312
30311	 -0.022146253	 0.036511388	 0.8900399
30321	 -0.0047883787	 0.0341172	 0.7236438
30331	 0.010175305	 0.032321557	 0.59675175
30341	 0.037109938	 0.0065840213	 0.45788872
30351	 0.04788379	 -0.00897821	 0.3776834
30361	 0.058059096	 -0.021547705	 0.309449
30371	 0.07003004	 -0.037708484	 0.2603681
30381	 0.0682344	 -0.04788379	 0.23103929
30391	 0.06584021	 -0.053270716	 0.21427996
30401	 0.06703731	 -0.051475074	 0.19752063
30411	 0.06165038	 -0.044891052	 0.19811918
30422	 0.06643876	 -0.046686694	 0.18016276
30432	 0.06763585	 -0.053869262	 0.16639617
30442	 0.064643115	 -0.06105183	 0.16160779
30452	 0.07481842	 -0.06763585	 0.13048333
30462	 0.092176296	 -0.082000986	 0.10055596
30472	 0.099358864	 -0.09457049	 0.089782104
30482	 0.1035487	 -0.10055596	 0.08499373
30492	 0.098760314	 -0.09756322	 0.09696467
30502	 0.092774846	 -0.08678937	 0.101154506
30512	 0.08619082	 -0.08020534	 0.113724
30522	 0.07721261	 -0.07601552	 0.13227896
30532	 0.07781116	 -0.0796068	 0.1274906
30542	 0.07661406	 -0.0784097	 0.11970948
30552	 0.07242423	 -0.082599536	 0.12150512
30562	 0.073022775	 -0.08858501	 0.11851238
30572	 0.07601552	 -0.08439518	 0.11013272
30582	 0.0796068	 -0.0796068	 0.10414724
30592	 0.0784097	 -0.07541697	 0.10295015
30602	 0.07541697	 -0.06703731	 0.10534434
30612	 0.07242423	 -0.064044565	 0.099957414
30622	 0.07541697	 -0.06703731	 0.09636613
30632	 0.07781116	 -0.0784097	 0.09337339
30642	 0.08020534	 -0.09576758	 0.07900825
30652	 0.08559228	 -0.10414724	 0.07122713
30662	 0.07900825	 -0.09516903	 0.07721261
30672	 0.07721261	 -0.08858501	 0.07900825
30682	 0.07661406	 -0.083198085	 0.07721261
30692	 0.073022775	 -0.07003004	 0.08020534
30702	 0.07242423	 -0.057460546	 0.08559228
30712	 0.07122713	 -0.055664904	 0.083198085
30722	 0.07601552	 -0.048482336	 0.07900825
30732	 0.07601552	 -0.042496864	 0.07721261
30742	 0.07721261	 -0.05027798	 0.07541697
30752	 0.074219875	 -0.05506636	 0.073621325
30763	 0.07062859	 -0.06105183	 0.07900825
30773	 0.07481842	 -0.06165038	 0.073022775
30783	 0.08020534	 -0.05506636	 0.073022775
30793	 0.08678937	 -0.047285244	 0.06584021
30803	 0.083796635	 -0.03890558	 0.06883295
30813	 0.07481842	 -0.044891052	 0.083198085
30823	 0.06763585	 -0.050876528	 0.09457049
30833	 0.06284747	 -0.051475074	 0.10295015
30843	 0.05925619	 -0.054467812	 0.10474579
30853	 0.06165038	 -0.056862	 0.10295015
30863	 0.06105183	 -0.056263454	 0.10414724
30873	 0.05985474	 -0.05027798	 0.10295015
30883	 0.058059096	 -0.047285244	 0.1035487
30893	 0.058059096	 -0.047285244	 0.098760314
30903	 0.06105183	 -0.05267217	 0.090380654
30913	 0.058657642	 -0.044292506	 0.09337339
30926	 0.058059096	 -0.041299768	 0.08858501
30936	 0.058657642	 -0.032920104	 0.08140244
30946	 0.06344602	 -0.02992737	 0.074219875
30956	 0.064044565	 -0.034715746	 0.06943149
30966	 0.064643115	 -0.04070122	 0.07062859
30976	 0.05925619	 -0.0454896	 0.07003004
30986	 0.058059096	 -0.048482336	 0.06763585
30996	 0.06165038	 -0.049080886	 0.06344602
31006	 0.058059096	 -0.044891052	 0.07721261
31016	 0.053869262	 -0.042496864	 0.082599536
31026	 0.058059096	 -0.04369396	 0.08140244
31036	 0.05925619	 -0.041299768	 0.082000986
31046	 0.057460546	 -0.035314295	 0.08918356
31056	 0.054467812	 -0.032920104	 0.09816177
31066	 0.057460546	 -0.030525915	 0.09816177
31076	 0.065241665	 -0.0227448	 0.090380654
31086	 0.056862	 -0.01795642	 0.07721261
31096	 0.07541697	 -0.032920104	 0.046088148
31106	 0.13407461	 -0.050876528	 -0.0029927369
31116	 0.17717002	 -0.07062859	 -0.015562232
31126	 0.17357874	 -0.055664904	 0.0053869262
31136	 0.20829448	 -0.07122713	 -0.036511388
31147	 0.19512644	 -0.055664904	 -0.021547705
31157	 0.22086398	 -0.07182568	 0.009576757
31167	 0.23522912	 -0.064643115	 0.022146253
31177	 0.2741347	 -0.0035912842	 -0.0047883787
31187	 0.37109938	 -0.0227448	 -0.07122713
31197	 0.55365634	 -0.021547705	 -0.1568194
31207	 0.7721261	 0.028730273	 -0.2795216
31217	 1.0456623	 0.19991483	 -0.38426742
31227	 1.2784972	 0.42018026	 -0.42137736
31237	 1.4131703	 0.5410868	 -0.41000494
31247	 1.4682367	 0.54767084	 -0.31782866
31257	 1.4011993	 0.52612317	 -0.11911093
31267	 1.794445	 0.2477986	 0.28251436
31277	 2.2936335	 -0.22445527	 0.82539684
31287	 1.6759326	 -0.35074875	 1.9973526
31297	 1.7537438	 -0.5650287	 2.8532753
31307	 2.320568	 -0.518342	 3.0154817
31318	 2.8083842	 -0.053869262	 2.2607133
31328	 3.0597742	 0.58956915	 1.8519056
31338	 3.2195864	 1.1893137	 1.7788827
31348	 3.3578508	 1.6059026	 1.6777283
31358	 3.422494	 1.8477157	 1.4185573
31368	 3.3937635	 1.9404906	 1.0564361
31378	 3.3033829	 1.9231327	 0.7164612
31388	 3.1728995	 1.8153942	 0.5075682
31398	 3.02027	 1.6202677	 0.42137736
31408	 2.8347204	 1.3533156	 0.3866616
31418	 2.622236	 1.0396768	 0.32321557
31428	 2.401372	 0.69072366	 0.22804655
31438	 2.178114	 0.34895313	 0.12569495
31448	 1.9470745	 0.035314295	 0.08738792
31458	 1.7208236	 -0.26814923	 0.18495114
31468	 1.4891858	 -0.5853793	 0.44531924
31478	 1.2449785	 -0.93193823	 0.7062859
31488	 0.9911944	 -1.2713146	 0.80564475
31498	 0.7296292	 -1.5729824	 0.7745203
31508	 0.47165534	 -1.8674678	 0.74878275
31518	 0.22385672	 -2.1727269	 0.81701714
31528	 -0.008379663	 -2.4127445	 0.9618656
31538	 -0.22684945	 -2.5330524	 1.0767868
31548	 -0.42855993	 -2.519286	 1.1510066
31558	 -0.6236864	 -2.3678534	 1.2282192
31568	 -0.79786366	 -2.1320257	 1.2970521
31578	 -0.9433107	 -1.8620808	 1.3245853
31588	 -1.0642172	 -1.5747781	 1.3030376
31598	 -1.1581892	 -1.307826	 1.2330076
31608	 -1.237796	 -1.0917504	 1.081575
31618	 -1.306629	 -0.94869757	 0.8654995
31628	 -1.3652866	 -0.88225883	 0.69910336
31638	 -1.4155645	 -0.8804632	 0.575204
31648	 -1.4706309	 -0.9259528	 0.4662684
31659	 -1.5149233	 -1.0007712	 0.36152261
31669	 -1.5646029	 -1.0031654	 0.33398944
31679	 -1.6256547	 -1.0199248	 0.334588
31689	 -1.6729399	 -1.0043625	 0.4435236
31699	 -1.7405758	 -0.97862494	 0.7266365
31709	 -1.8147956	 -0.9756322	 1.0516478
31719	 -1.901585	 -0.9971799	 1.3251839
31729	 -1.9925642	 -1.0241145	 1.4454919
31739	 -2.06439	 -1.022319	 1.3694764
31749	 -2.1194563	 -0.9702453	 1.1725543
31759	 -2.1769168	 -0.86370385	 0.95109177
31769	 -2.2355745	 -0.7631479	 0.7433958
31779	 -2.2966263	 -0.63386166	 0.52372897
31789	 -2.3439114	 -0.4967943	 0.2795216
31799	 -2.361868	 -0.32261702	 0.074219875
31809	 -2.376233	 -0.14843975	 -0.04369396
31819	 -2.3959851	 -0.03591284	 -0.07182568
31832	 -2.4247153	 -0.06943149	 0.021547705
31842	 -2.4247153	 -0.2364262	 0.036511388
31852	 -2.4318979	 -0.45848727	 0.04070122
31862	 -2.450453	 -0.68413967	 0.049679432
31873	 -2.464818	 -0.878069	 0.04369396
31883	 -2.4869642	 -1.0097494	 -0.014365137
31893	 -2.5043223	 -1.0492536	 -0.13467316
31903	 -2.5156946	 -0.97982204	 -0.29388675
31913	 -2.5067165	 -0.8062433	 -0.45190325
31923	 -2.4923513	 -0.5404883	 -0.5584447
31933	 -2.4672122	 -0.22684945	 -0.6111169
31943	 -2.2457497	 0.019153515	 -1.6908963
31953	 -2.2672975	 0.36571243	 -1.8237739
31963	 -2.1996615	 0.6835411	 -2.3253565
31973	 -2.6683242	 0.11013272	 -3.4703777
31983	 -2.5935059	 0.17238164	 -4.094064
31993	 -2.1152663	 0.45010763	 -3.196243
32003	 -1.7178309	 0.65361375	 -1.2635335
32013	 -1.4987626	 0.9804206	 -0.06943149
32023	 -1.295855	 1.2982492	 0.2059003
32033	 -1.023516	 1.4436963	 0.30765334
32043	 -0.73262197	 1.4855945	 0.3513473
32053	 -0.4662684	 1.2725117	 0.2567768
32063	 -0.43873522	 0.86849225	 -0.12030802
32073	 -0.60094154	 0.5446781	 0.27712744
32083	 -0.94510627	 0.834375	 1.5077409
32093	 -1.0342898	 0.9959828	 2.2696917
32103	 -0.8768719	 0.75895804	 2.5031252
32113	 -0.7062859	 0.41239914	 2.339123
32123	 -0.5608389	 0.3716979	 2.065587
32133	 -0.41658896	 0.5285173	 1.7531452
32143	 -0.29029548	 0.5973503	 1.5065438
32153	 -0.19213371	 0.52133477	 1.3539141
32163	 -0.1274906	 0.3764863	 1.2342046
32173	 0.024540443	 -0.12449785	 1.4059877
32183	 -0.17477584	 -0.08499373	 2.339123
32193	 -0.17956421	 0.101753056	 2.0548131
32203	 0.0017956421	 -0.03890558	 1.5298871
32214	 0.0029927369	 -0.02992737	 1.2701175
32224	 0.053270716	 -0.06344602	 1.0474579
32234	 0.074219875	 -0.05925619	 0.8379663
32244	 0.10594288	 -0.0909792	 0.7110743
32254	 0.13108188	 -0.11132981	 0.5680215
32264	 0.16280489	 -0.13227896	 0.45549455
32274	 0.17477584	 -0.13706735	 0.38127467
32284	 0.19692208	 -0.14185573	 0.30645624
32294	 0.20230901	 -0.14963683	 0.25198844
32304	 0.21966688	 -0.1364688	 0.20769593
32314	 0.23582767	 -0.12569495	 0.17896566
32324	 0.23343347	 -0.098760314	 0.16280489
32334	 0.2388204	 -0.073621325	 0.13826445
32344	 0.23522912	 -0.053270716	 0.12988478
32354	 0.22924364	 -0.033518653	 0.13886298
32364	 0.2148785	 -0.019752063	 0.1490383
32374	 0.20649885	 -0.0065840213	 0.15562232
32384	 0.19273226	 0.0053869262	 0.16280489
32394	 0.19093661	 0.0029927369	 0.16460052
32404	 0.18255694	 0.0011970947	 0.16460052
32414	 0.18554969	 -0.0113724	 0.16699472
32424	 0.18375404	 -0.019752063	 0.16160779
32434	 0.18016276	 -0.026934631	 0.16041069
32444	 0.1819584	 -0.023343347	 0.15083393
32454	 0.16759327	 -0.035314295	 0.13886298
32464	 0.17417729	 -0.023941895	 0.13467316
32474	 0.18435259	 -0.037109938	 0.12808913
32484	 0.18315549	 -0.026934631	 0.10654143
32494	 0.18614823	 -0.02753318	 0.1035487
32504	 0.18734533	 -0.026934631	 0.099957414
32514	 0.19632354	 -0.012569495	 0.08858501
32524	 0.18614823	 -0.0227448	 0.09756322
32534	 0.18255694	 -0.032321557	 0.10953417
32544	 0.18076131	 -0.02753318	 0.10295015
32555	 0.18016276	 -0.0041898317	 0.0796068
32565	 0.19752063	 -0.009576757	 0.074219875
32575	 0.19871773	 -0.0017956421	 0.05985474
32585	 0.20649885	 -5.9854734E-4	 0.053869262
32595	 0.2047032	 -0.0107738525	 0.053869262
32605	 0.20649885	 -0.01795642	 0.051475074
32615	 0.20649885	 -0.026934631	 0.046686694
32625	 0.20350611	 -0.032920104	 0.050876528
32635	 0.19093661	 -0.039504126	 0.06344602
32645	 0.18914098	 -0.04369396	 0.07481842
32655	 0.17776857	 -0.039504126	 0.0784097
32665	 0.17597292	 -0.037708484	 0.08918356
32675	 0.17298019	 -0.0341172	 0.09516903
32685	 0.16340344	 -0.03172301	 0.09516903
32695	 0.16100924	 -0.028131727	 0.10295015
32705	 0.1580165	 -0.016759327	 0.108935624
32715	 0.15442522	 -0.00897821	 0.11132981
32726	 0.14484847	 -0.0023941894	 0.10474579
32738	 0.17477584	 -0.035314295	 0.06703731
32748	 0.22026543	 -0.0682344	 0.034715746
32758	 0.20410465	 -0.06105183	 0.028730273
32769	 0.20290756	 -0.057460546	 0.02992737
32779	 0.2501928	 -0.041299768	 0.0
32789	 0.28131726	 -0.06703731	 0.0
32799	 0.24600297	 -0.06344602	 0.035314295
32809	 0.25557974	 -0.05506636	 0.051475074
32819	 0.29029548	 -0.07601552	 0.057460546
32829	 0.25079134	 -0.09576758	 0.08738792
32839	 0.22924364	 -0.083796635	 0.10295015
32849	 0.21966688	 -0.065241665	 0.12988478
32859	 0.22086398	 -0.054467812	 0.1352717
32869	 0.22505382	 -0.054467812	 0.10713998
32879	 0.30286497	 -0.04788379	 0.05207362
32889	 0.40042818	 -0.05267217	 0.0
32899	 0.6182994	 -0.06284747	 -0.1376659
32909	 1.0001726	 -0.108935624	 -0.39384416
32919	 1.5675956	 -0.17477584	 -0.71705973
32929	 1.9734107	 -0.15262958	 -0.71586263
32939	 2.3103929	 0.028730273	 -0.5674229
32949	 2.1733255	 0.15741795	 -0.06165038
32959	 2.0584044	 0.117913835	 0.53629845
32969	 2.079952	 -0.108337075	 1.0139393
32979	 2.2637062	 -0.0454896	 1.1480138
32989	 0.98700464	 1.5957273	 2.0476305
32999	 -0.37588775	 3.2973974	 3.1675127
33009	 -0.1592136	 3.373413	 3.9414344
33019	 -0.44651634	 2.8610563	 4.4729443
33029	 -0.30885044	 1.6956847	 4.728524
33039	 -0.12210366	 0.4967943	 4.2496862
33049	 0.06165038	 -0.6236864	 3.512276
33059	 0.23582767	 -1.3425417	 2.91313
33069	 0.32082137	 -1.5077409	 2.8167639
33079	 0.33518654	 -1.238993	 2.9346778
33089	 0.41000494	 -0.7817029	 2.9484444
33099	 0.54886794	 -0.1364688	 2.8209538
33110	 0.7631479	 0.48602048	 2.5725565
33120	 0.9301426	 1.0013697	 2.3804228
33130	 1.0779839	 1.4873902	 2.2325816
33140	 1.2276206	 1.9051763	 2.0607986
33150	 1.3587025	 2.2224064	 1.7142397
33160	 1.4676381	 2.3834157	 1.1827296
33170	 1.5616101	 2.3792257	 0.57340837
33180	 1.6094939	 2.2433555	 0.04788379
33190	 1.6322386	 2.0027394	 -0.4333483
33200	 1.6418154	 1.7088528	 -0.8038491
33210	 1.637027	 1.4089805	 -1.098933
33220	 1.6220634	 1.1396341	 -1.3347607
33230	 1.5765737	 0.9295441	 -1.5460478
33240	 1.523303	 0.7852942	 -1.7537438
33250	 1.4580613	 0.69670916	 -1.9069719
33260	 1.3694764	 0.6218907	 -2.008725
33270	 1.2527597	 0.5446781	 -2.0859375
33280	 1.1091083	 0.4926045	 -2.1811066
33290	 0.97742784	 0.4955972	 -2.3355317
33300	 0.8301852	 0.51894057	 -2.4217227
33310	 0.66977453	 0.53151006	 -2.4115474
33320	 0.48063353	 0.45070615	 -2.3636637
33330	 0.25976956	 0.29089403	 -2.3397217
33340	 0.026934631	 0.09636613	 -2.401372
33350	 -0.20889303	 -0.08619082	 -2.5210814
33360	 -0.454896	 -0.27353615	 -2.677901
33370	 -0.71286994	 -0.5063711	 -2.7790554
33380	 -0.97982204	 -0.7793087	 -2.7180035
33390	 -1.2318105	 -1.0522463	 -2.4576354
33400	 -1.4814048	 -1.3126143	 -2.0542145
33410	 -1.7543423	 -1.5849534	 -1.6340343
33420	 -2.0763607	 -1.8309563	 -1.264132
33430	 -2.4283066	 -1.9494687	 -1.0354869
33440	 -2.7736685	 -1.9141545	 -1.0690056
33451	 -3.0920956	 -1.7597293	 -1.3640895
33461	 -3.3829896	 -1.6047055	 -1.6573777
33471	 -3.6265986	 -1.5580188	 -1.667553
33481	 -3.853448	 -1.6059026	 -1.346133
33491	 -4.0467787	 -1.7040644	 -0.87387913
33501	 -4.181452	 -1.7776856	 -0.5231304
33511	 -4.2365184	 -1.8626794	 -0.42616573
33521	 -4.220956	 -1.9141545	 -0.34835458
33531	 -4.1527214	 -1.813	 -0.064643115
33541	 -4.005479	 -1.5574203	 0.20949158
33551	 -4.8404527	 -0.6242849	 0.9768293
33561	 -5.2636256	 -0.4309541	 1.5298871
33571	 -3.783418	 -0.5554519	 2.0260828
33581	 -2.577345	 -0.54168534	 1.9877758
33591	 -1.6801225	 0.47823936	 -2.337926
33601	 -1.4903829	 -0.16100924	 -5.547337
33611	 -3.1555417	 1.0911518	 -2.7221935
33622	 -2.4576354	 1.2330076	 -0.63984716
33632	 -1.6232605	 0.66738033	 0.7200525
33644	 0.8756748	 -0.9175731	 -4.2425036
33654	 0.96126705	 -0.35733277	 -4.1215973
33665	 -0.73621327	 -0.54407954	 -1.7734958
33675	 -0.38007757	 -1.143824	 -1.426937
33685	 0.08918356	 -2.9400647	 -0.2795216
33695	 0.3172301	 -3.3823912	 -0.1681918
33705	 -0.341172	 -2.1703327	 0.891237
33715	 -0.31663156	 -1.1162908	 0.74519145
33725	 0.06105183	 -0.4686626	 0.35553715
33735	 -0.016160779	 -0.26216376	 0.3776834
33745	 -0.023941895	 -0.37708485	 0.43753812
33755	 0.03830703	 -0.46686694	 0.36331826
33765	 0.06584021	 -0.34296763	 0.3148359
33775	 0.022146253	 -0.170586	 0.29149258
33785	 0.047285244	 -0.13287751	 0.2968795
33795	 0.06703731	 -0.11851238	 0.2753318
33805	 0.11073127	 -0.090380654	 0.2388204
33815	 0.12689205	 -0.056263454	 0.21248432
33825	 0.13168041	 -0.037109938	 0.2059003
33835	 0.11970948	 -0.022146253	 0.19991483
33845	 0.11970948	 -0.0227448	 0.18375404
33855	 0.12569495	 -0.012569495	 0.16699472
33865	 0.13467316	 -0.0053869262	 0.15143248
33875	 0.14125718	 -0.0059854737	 0.1376659
33885	 0.14305282	 -0.01376659	 0.13168041
33895	 0.13946153	 -0.025737537	 0.1262935
33905	 0.14365137	 -0.032920104	 0.12330076
33915	 0.14424992	 -0.028131727	 0.12210366
33925	 0.1478412	 -0.019752063	 0.12210366
33935	 0.13946153	 -0.008379663	 0.12150512
33945	 0.14065863	 -0.017357873	 0.116716735
33955	 0.1490383	 -0.020949159	 0.11132981
33965	 0.14963683	 -0.02513899	 0.10534434
33975	 0.14365137	 -0.019752063	 0.11132981
33985	 0.14305282	 -0.015562232	 0.10594288
33995	 0.14305282	 -0.015562232	 0.1035487
34006	 0.14245427	 -0.014365137	 0.099957414
34016	 0.14963683	 -0.026336085	 0.09337339
34026	 0.15322812	 -0.02992737	 0.091577746
34036	 0.14544702	 -0.021547705	 0.09816177
34046	 0.14245427	 -0.016160779	 0.0909792
34056	 0.13407461	 -0.010175305	 0.098760314
34066	 0.12928623	 -0.00897821	 0.10654143
34076	 0.13826445	 -0.019752063	 0.09696467
34086	 0.14544702	 -0.0341172	 0.08678937
34096	 0.12988478	 -0.02753318	 0.099957414
34106	 0.1274906	 -0.01795642	 0.101753056
34116	 0.1250964	 -0.014963685	 0.10414724
34126	 0.12330076	 -0.017357873	 0.1035487
34136	 0.12988478	 -0.019153515	 0.09337339
34146	 0.13886298	 -0.022146253	 0.08499373
34156	 0.13287751	 -0.014963685	 0.083198085
34166	 0.1238993	 -0.0029927369	 0.0909792
34176	 0.11551964	 0.0011970947	 0.10055596
34186	 0.11312545	 0.0	 0.10594288
34196	 0.12210366	 -0.00897821	 0.092176296
34206	 0.11851238	 -0.0107738525	 0.09397194
34216	 0.12150512	 -0.01376659	 0.09516903
34226	 0.11911093	 -0.019752063	 0.101154506
34236	 0.11312545	 -0.02035061	 0.10654143
34246	 0.117315285	 -0.0227448	 0.09696467
34256	 0.12210366	 -0.01795642	 0.08798646
34266	 0.12270221	 -0.012569495	 0.082599536
34276	 0.12030802	 -0.0059854737	 0.083796635
34286	 0.117315285	 -0.0017956421	 0.08619082
34296	 0.107738525	 0.0053869262	 0.09696467
34306	 0.10414724	 0.0017956421	 0.09636613
34316	 0.107738525	 0.0017956421	 0.0909792
34326	 0.11013272	 -0.0047883787	 0.08559228
34336	 0.10534434	 -0.016160779	 0.082599536
34347	 0.10654143	 -0.019153515	 0.07601552
34357	 0.11312545	 -0.01795642	 0.06284747
34367	 0.11851238	 -0.017357873	 0.049679432
34377	 0.11492109	 -0.0131680425	 0.056263454
34387	 0.10953417	 -0.007781116	 0.06284747
34397	 0.10295015	 -0.0065840213	 0.07062859
34407	 0.092774846	 -0.009576757	 0.08140244
34417	 0.09576758	 -0.0047883787	 0.08858501
34427	 0.08499373	 -0.0053869262	 0.09816177
34437	 0.08499373	 0.0	 0.101154506
34447	 0.08619082	 0.007781116	 0.10474579
34457	 0.057460546	 0.0065840213	 0.11252691
34467	 0.060453285	 0.026934631	 0.10055596
34477	 0.082599536	 0.012569495	 0.101753056
34487	 0.0909792	 0.007781116	 0.09457049
34497	 0.10474579	 0.007781116	 0.05925619
34507	 0.1238993	 0.0	 0.025737537
34518	 0.11132981	 0.0041898317	 0.050876528
34528	 0.1364688	 0.0071825683	 0.046088148
34538	 0.12988478	 0.0107738525	 0.021547705
34550	 0.15203103	 -0.053270716	 0.03890558
34561	 0.1274906	 -0.046088148	 0.06284747
34571	 0.13048333	 -0.0029927369	 0.092774846
34581	 0.11312545	 0.015562232	 0.11013272
34591	 0.11073127	 0.012569495	 0.11611819
34601	 0.12090657	 0.0071825683	 0.11432255
34611	 0.13108188	 -0.0053869262	 0.11432255
34621	 0.15741795	 -0.014963685	 0.09516903
34631	 0.2059003	 -0.03591284	 0.06284747
34641	 0.27114195	 -0.042496864	 0.018554969
34651	 0.3309967	 -0.082599536	 -0.022146253
34661	 0.42018026	 -0.12210366	 -0.051475074
34671	 0.5973503	 -0.17597292	 -0.15023538
34681	 0.76374644	 -0.2286451	 -0.18375404
34691	 0.9062007	 -0.23044074	 -0.19213371
34701	 1.0211219	 -0.3196243	 -0.15741795
34711	 1.0959402	 -0.36810663	 -0.15203103
34721	 0.84993726	 -0.3196243	 0.02753318
34731	 0.8607111	 -0.5865764	 0.08918356
34741	 0.309449	 -0.39743546	 0.52253187
34751	 0.2819158	 0.2968795	 0.47165534
34761	 0.13048333	 0.4698597	 0.12150512
34771	 -0.2364262	 0.19153516	 -0.49978706
34781	 -1.1575906	 -0.28909838	 -0.28550708
34791	 -2.6383967	 0.11252691	 1.1402327
34801	 -3.4159098	 0.5111595	 2.4049633
34811	 -3.562554	 0.682344	 3.254302
34821	 -3.4518228	 0.86011255	 3.9085143
34831	 -3.1351912	 1.0432681	 4.1024437
34841	 -2.66593	 1.1067141	 3.8911564
34851	 -2.2008586	 1.0821736	 3.512276
34861	 -1.7417729	 1.0007712	 3.133994
34871	 -1.2970521	 0.909792	 2.81018
34881	 -0.84993726	 0.80684185	 2.5683668
34891	 -0.39743546	 0.7368118	 2.4301023
34902	 0.051475074	 0.7014975	 2.515096
34912	 0.49380156	 0.69551206	 2.932882
34922	 0.91039056	 0.7332205	 3.7032125
34932	 1.3120158	 0.79307526	 4.4466085
34942	 1.6896992	 0.80325055	 4.9685416
34952	 1.9949584	 0.81821424	 5.274998
34962	 2.2349758	 0.8373678	 5.174442
34972	 2.4468617	 0.73980457	 4.621384
34982	 2.5929072	 0.68593526	 3.6690953
34992	 2.7078283	 0.6015401	 2.5348482
35002	 2.761099	 0.58478075	 1.4365137
35012	 2.7832453	 0.5674229	 0.66378903
35022	 2.7850409	 0.6063285	 0.34775603
35032	 2.7431426	 0.6518181	 0.4513047
35042	 2.6162505	 0.69192076	 0.8643024
35052	 2.4199271	 0.726038	 1.3048333
35062	 2.224202	 0.7296292	 1.4209515
35072	 1.8973951	 0.71286994	 1.0839692
35082	 1.6100924	 0.68174547	 0.39504126
35092	 1.4119732	 0.5925619	 -0.4207788
35102	 1.1964962	 0.5422839	 -1.0857649
35112	 1.0157349	 0.511758	 -1.4832004
35122	 0.85891545	 0.5063711	 -1.5867491
35132	 0.6781542	 0.536897	 -1.5274929
35142	 0.45968437	 0.5392912	 -1.4676381
35152	 0.2376233	 0.536897	 -1.5466464
35162	 0.060453285	 0.46028292	 -1.8728547
35172	 -0.046088148	 0.32022285	 -2.2475455
35182	 -0.12090657	 0.1592136	 -2.291838
35192	 -0.2513899	 0.083198085	 -1.9297167
35202	 -0.38965434	 0.03830703	 -1.7184294
35212	 -0.48841465	 -0.04309541	 -1.8932053
35222	 -0.58956915	 -0.22984219	 -2.192479
35232	 -0.7254394	 -0.48721755	 -2.2684946
35243	 -0.86609805	 -0.7631479	 -2.123646
35253	 -1.0336913	 -0.95109177	 -1.8908111
35263	 -1.225825	 -1.1019257	 -1.7782842
35273	 -1.426937	 -1.2168468	 -1.7860653
35283	 -1.6041069	 -1.2731103	 -1.881833
35293	 -1.7639191	 -1.2437814	 -2.0194988
35303	 -1.9141545	 -1.1294589	 -2.012915
35313	 -2.09312	 -1.0540419	 -1.8692634
35323	 -2.2002602	 -1.0839692	 -1.7663133
35333	 -2.3062031	 -1.1390356	 -1.5328798
35343	 -2.4103503	 -1.1468167	 -1.2491684
35353	 -2.5180888	 -1.105517	 -1.0007712
35363	 -2.610265	 -1.0851663	 -0.85472566
35373	 -2.653959	 -1.0630201	 -0.6530152
35383	 -2.7018428	 -1.0151364	 -0.28969693
35393	 -2.7305732	 -1.0241145	 -0.09576758
35403	 -2.7622962	 -1.1103053	 -0.20350611
35414	 -2.7269819	 -1.2078686	 -0.3196243
35424	 -2.6551561	 -1.2707161	 -0.032321557
35434	 -2.5444248	 -1.2886724	 0.32381412
35447	 -2.1882892	 -1.2431829	 -0.012569495
35457	 -2.0230901	 -1.0019683	 -0.2513899
35467	 -1.8465186	 -0.65002245	 -0.20051336
35477	 -1.724415	 -0.2513899	 0.20530175
35487	 -1.610691	 0.05925619	 0.52253187
35497	 -1.5017554	 0.22684945	 0.50816673
35507	 -1.3724691	 0.30226642	 0.34775603
35517	 -1.2880739	 0.35912842	 0.25857246
35527	 -1.3682793	 -0.11551964	 -1.2629349
35537	 -1.9207385	 -0.7517755	 -0.6530152
35547	 -2.073368	 0.891237	 0.8678937
35557	 -1.346133	 1.6495966	 1.6130852
35567	 -0.4967943	 1.6286474	 0.30047077
35577	 0.2741347	 1.0295014	 -0.8469445
35587	 0.4926045	 -0.032920104	 -1.0959402
35597	 0.36690953	 -1.4568642	 -1.2342046
35607	 -0.023343347	 -1.9297167	 -0.9199673
35617	 -0.4572902	 -1.2934608	 -0.40162528
35627	 -0.76733774	 0.2059003	 0.26395938
35637	 -0.6518181	 1.8656721	 1.2234309
35647	 -0.43514395	 1.1348459	 1.2970521
35657	 0.12030802	 0.74638855	 0.30346352
35667	 -0.0071825683	 0.3639168	 0.6781542
35677	 -0.1250964	 0.13946153	 0.90919346
35687	 -0.22505382	 0.0784097	 1.0642172
35697	 -0.26874778	 0.0035912842	 1.1210792
35707	 -0.2047032	 -0.025737537	 0.98341334
35717	 -0.03890558	 -0.09397194	 0.79666656
35727	 0.08140244	 -0.1352717	 0.68174547
35737	 0.23343347	 -0.15442522	 0.49978706
35747	 0.2795216	 -0.18674678	 0.33039814
35757	 0.30466062	 -0.15143248	 0.23103929
35767	 0.21009013	 -0.08020534	 0.20230901
35777	 0.14185573	 -0.030525915	 0.22086398
35787	 0.11611819	 -0.029328821	 0.25737536
35798	 0.08020534	 0.0047883787	 0.3309967
35808	 0.0454896	 0.036511388	 0.38366887
35818	 0.0119709475	 0.037708484	 0.38486597
35828	 0.06763585	 0.03830703	 0.32441267
35838	 0.06284747	 0.0107738525	 0.30226642
35848	 0.0682344	 0.014365137	 0.2807187
35858	 0.07781116	 0.0113724	 0.24600297
35868	 0.0682344	 -0.0011970947	 0.21188577
35878	 0.055664904	 -0.0071825683	 0.21068868
35888	 0.08020534	 -0.05506636	 0.18614823
35898	 0.12270221	 -0.06643876	 0.15203103
35908	 0.14065863	 -0.07721261	 0.12270221
35918	 0.14724265	 -0.0909792	 0.092774846
35928	 0.1478412	 -0.08499373	 0.07601552
35938	 0.15262958	 -0.08020534	 0.051475074
35948	 0.14963683	 -0.08439518	 0.048482336
35958	 0.14843975	 -0.08559228	 0.049679432
35968	 0.13347606	 -0.10534434	 0.056862
35978	 0.12330076	 -0.098760314	 0.06703731
35988	 0.12030802	 -0.092176296	 0.073022775
35998	 0.12330076	 -0.09337339	 0.082599536
36008	 0.12449785	 -0.091577746	 0.08439518
36018	 0.1274906	 -0.07661406	 0.08738792
36028	 0.1364688	 -0.062248927	 0.08619082
36038	 0.1352717	 -0.049080886	 0.092176296
36048	 0.11911093	 -0.03172301	 0.09397194
36058	 0.10953417	 -0.023343347	 0.11013272
36068	 0.108337075	 -0.016759327	 0.12030802
36078	 0.108935624	 0.0	 0.11192836
36088	 0.10654143	 0.0023941894	 0.099358864
36098	 0.08439518	 0.0041898317	 0.11192836
36108	 0.089782104	 -0.0047883787	 0.113724
36118	 0.1023516	 -0.023941895	 0.083198085
36128	 0.11551964	 -0.037708484	 0.056263454
36139	 0.12330076	 -0.044891052	 0.044292506
36149	 0.12808913	 -0.044891052	 0.03172301
36159	 0.14125718	 -0.053869262	 0.0071825683
36169	 0.14484847	 -0.05506636	 0.0041898317
36179	 0.14724265	 -0.05207362	 0.008379663
36189	 0.1376659	 -0.028730273	 0.017357873
36199	 0.12449785	 -0.0059854737	 0.05027798
36209	 0.11492109	 -0.0059854737	 0.07242423
36219	 0.11611819	 -0.007781116	 0.10295015
36229	 0.09756322	 0.0029927369	 0.117315285
36239	 0.1274906	 -0.008379663	 0.1262935
36249	 0.1262935	 0.0011970947	 0.1250964
36259	 0.1364688	 0.0017956421	 0.13407461
36269	 0.13407461	 -0.0023941894	 0.11492109
36279	 0.15442522	 -0.016160779	 0.083796635
36289	 0.15262958	 -0.0227448	 0.0784097
36299	 0.1592136	 -0.041299768	 0.07661406
36310	 0.15203103	 -0.034715746	 0.08678937
36320	 0.1580165	 -0.049080886	 0.064044565
36330	 0.15262958	 -0.02035061	 0.092774846
36340	 0.107738525	 -0.049679432	 0.08678937
36354	 0.1035487	 -0.060453285	 0.12449785
36364	 0.0682344	 -0.022146253	 0.11611819
36374	 0.12988478	 -0.06943149	 0.1466441
36384	 0.10055596	 -0.08140244	 0.15502377
36395	 0.108935624	 -0.053270716	 0.13706735
36405	 0.13048333	 -0.019752063	 0.12210366
36415	 0.17477584	 -0.0017956421	 0.10594288
36425	 0.2376233	 0.0	 0.082599536
36435	 0.3184272	 -0.008379663	 0.048482336
36445	 0.42855993	 -0.022146253	 -0.025737537
36455	 0.57819676	 -0.051475074	 -0.14006008
36465	 0.7817029	 -0.15562232	 -0.2477986
36475	 1.0719984	 -0.23223639	 -0.40222383
36485	 1.3377534	 -0.34536183	 -0.51534927
36495	 1.4610541	 -0.46207857	 -0.3992311
36505	 1.6076982	 -0.5530578	 -0.20889303
36515	 1.3820459	 -0.7356147	 -0.031124463
36525	 0.76614064	 -0.51295507	 0.34416473
36535	 0.18914098	 0.19033806	 0.2807187
36545	 -0.3992311	 1.6130852	 -0.022146253
36555	 -2.0452363	 3.3039815	 1.6549835
36566	 -2.8006032	 4.149729	 2.8598592
36576	 -3.2399368	 3.9228795	 3.7193735
36586	 -3.2914119	 3.1106508	 4.3155265
36596	 -2.841903	 1.7202251	 4.722539
36606	 -2.1918805	 0.20769593	 4.853022
36616	 -1.3760604	 -1.1498095	 4.727926
36626	 -0.4776408	 -2.0913246	 4.9116797
36636	 0.2944853	 -2.3678534	 5.145113
36646	 0.9726395	 -2.1272373	 5.3103123
36656	 1.7130426	 -1.6735384	 5.2241216
36666	 2.4803803	 -0.94510627	 4.8123207
36676	 3.1860676	 -0.017357873	 4.3394685
36686	 3.7947903	 0.8768719	 3.7469065
36696	 4.267044	 1.452076	 2.9149256
36706	 4.605822	 1.6292459	 1.8979937
36716	 4.8159122	 1.5053467	 0.8289881
36726	 4.892526	 1.2174454	 -0.11611819
36736	 4.8620005	 0.8948283	 -0.87866753
36746	 4.7081738	 0.69970185	 -1.3964111
36756	 4.4478054	 0.6985048	 -1.7854668
36766	 4.12459	 0.796068	 -2.2086399
36776	 3.7457094	 0.8619082	 -2.5863233
36786	 3.296799	 0.7972651	 -2.8885896
36796	 2.7910264	 0.5243275	 -3.0908985
36806	 2.2565236	 0.10295015	 -3.1651185
36816	 1.6896992	 -0.34835458	 -3.1746953
36826	 1.1210792	 -0.74519145	 -3.1944473
36836	 0.5530578	 -1.0863634	 -3.274054
36846	 -0.032920104	 -1.3706734	 -3.4524212
36856	 -0.5853793	 -1.6603703	 -3.7163806
36866	 -1.1324517	 -1.8291608	 -3.8049657
36876	 -1.6783268	 -1.7519481	 -3.5829046
36886	 -2.2355745	 -1.3670822	 -3.0232627
36896	 -2.8413043	 -0.81821424	 -2.4893584
36907	 -3.40753	 -0.36092407	 -2.3899996
36917	 -3.9198868	 -0.056263454	 -2.2822611
36927	 -4.3909435	 0.12868768	 -1.8285623
36937	 -4.750072	 0.20829448	 -1.4125718
36947	 -5.0140314	 0.19392934	 -1.2455771
36957	 -5.22472	 0.10654143	 -1.219241
36967	 -5.3737583	 0.044891052	 -1.1587877
36977	 -5.459949	 0.042496864	 -1.0642172
36990	 -5.367174	 -0.0059854737	 -1.3479286
37000	 -5.133142	 -0.082000986	 -1.1970947
37010	 -4.8320727	 -0.15861505	 -0.6727672
37020	 -4.6405377	 -0.30346352	 -1.2479713
37030	 -4.739298	 -0.91517895	 -1.6699471
37040	 -4.878161	 -0.92655134	 0.10414724
37050	 -4.79616	 -0.92176294	 1.2796943
37060	 -4.140751	 -0.8391634	 1.1851238
37070	 -3.277047	 -0.6141096	 0.4926045
37080	 -2.370846	 -0.107738525	 -0.6260806
37090	 -1.4502803	 1.1342473	 -0.34476328
37100	 -0.63027036	 1.0929475	 -0.9433107
37110	 0.94989467	 1.9422863	 -1.9668267
37120	 -0.08020534	 0.8319808	 -0.10953417
37130	 0.14843975	 1.0576332	 -0.6937164
37140	 -0.11851238	 0.9109891	 0.2831129
37150	 -0.27712744	 0.15442522	 0.78708977
37160	 -0.07003004	 -0.41898316	 0.69311786
37170	 -0.032920104	 -0.5345028	 0.9445077
37180	 -0.14065863	 -0.31782866	 1.0558375
37190	 -0.18973951	 -0.051475074	 1.1330502
37200	 -0.19991483	 0.0041898317	 1.1342473
37210	 -0.13287751	 -0.044891052	 1.0312971
37220	 -0.07541697	 -0.1466441	 0.9361281
37230	 -0.033518653	 -0.19811918	 0.84634596
37240	 -0.0041898317	 -0.16100924	 0.7308263
37250	 0.030525915	 -0.11252691	 0.6200951
37260	 0.06165038	 -0.08439518	 0.5087653
37270	 0.07781116	 -0.06344602	 0.4345454
37280	 0.091577746	 -0.065241665	 0.36631098
37291	 0.1023516	 -0.0682344	 0.3136388
37301	 0.101154506	 -0.056263454	 0.2783245
37311	 0.11611819	 -0.041299768	 0.25079134
37321	 0.12150512	 -0.03172301	 0.22146253
37331	 0.1262935	 -0.02753318	 0.20171046
37341	 0.1262935	 -0.031124463	 0.18135986
37351	 0.14125718	 -0.042496864	 0.16699472
37361	 0.14963683	 -0.03830703	 0.15382667
37371	 0.14365137	 -0.032321557	 0.13347606
37381	 0.14544702	 -0.028730273	 0.12808913
37391	 0.1478412	 -0.03172301	 0.12150512
37401	 0.1478412	 -0.037109938	 0.116716735
37411	 0.14484847	 -0.039504126	 0.11432255
37421	 0.14245427	 -0.04369396	 0.117913835
37431	 0.13946153	 -0.04309541	 0.12090657
37441	 0.13826445	 -0.044891052	 0.11492109
37451	 0.15023538	 -0.041898318	 0.11252691
37462	 0.15023538	 -0.04010267	 0.10534434
37472	 0.14424992	 -0.044891052	 0.10474579
37482	 0.1466441	 -0.04070122	 0.10414724
37492	 0.14484847	 -0.03830703	 0.09397194
37502	 0.14963683	 -0.037708484	 0.0796068
37512	 0.14424992	 -0.035314295	 0.07900825
37522	 0.14843975	 -0.02992737	 0.07601552
37532	 0.14424992	 -0.037109938	 0.08020534
37542	 0.14006008	 -0.04010267	 0.08080389
37552	 0.13886298	 -0.037708484	 0.073022775
37562	 0.1364688	 -0.044891052	 0.07062859
37572	 0.1364688	 -0.03830703	 0.07541697
37582	 0.12988478	 -0.051475074	 0.07242423
37592	 0.13347606	 -0.064044565	 0.07601552
37602	 0.12928623	 -0.055664904	 0.073621325
37612	 0.1262935	 -0.054467812	 0.074219875
37622	 0.12569495	 -0.033518653	 0.07541697
37632	 0.12090657	 -0.041299768	 0.07601552
37642	 0.11132981	 -0.037109938	 0.073022775
37652	 0.11611819	 -0.0454896	 0.08020534
37662	 0.11132981	 -0.058059096	 0.08798646
37672	 0.11252691	 -0.058059096	 0.09337339
37682	 0.11551964	 -0.019153515	 0.09636613
37692	 0.11132981	 -0.03172301	 0.099358864
37702	 0.11492109	 -0.022146253	 0.10055596
37712	 0.11611819	 -0.016759327	 0.09457049
37722	 0.11192836	 -0.023941895	 0.09397194
37732	 0.11073127	 -0.02513899	 0.08858501
37742	 0.10594288	 -0.02513899	 0.089782104
37752	 0.09816177	 -0.029328821	 0.09337339
